acc_X(g),acc_Y(g),acc_Z(g),ang_X(g),ang_Y(g),ang_Z(g),Time,Cluster
-0.678,0.365,0.646,0.488,0.0,-1.16,2024-01-16 21:15:37.867,0
-0.678,0.365,0.646,0.488,0.0,-1.16,2024-01-16 21:15:37.867,0
-0.688,0.354,0.65,1.099,-0.305,-1.343,2024-01-16 21:15:37.997,0
-0.688,0.354,0.65,1.099,-0.305,-1.343,2024-01-16 21:15:37.997,0
-0.67,0.356,0.642,1.77,-0.183,-1.343,2024-01-16 21:15:38.710,0
-0.67,0.356,0.642,1.77,-0.183,-1.343,2024-01-16 21:15:38.710,0
-0.671,0.359,0.647,1.831,-1.343,-0.854,2024-01-16 21:15:38.189,0
-0.671,0.359,0.647,1.831,-1.343,-0.854,2024-01-16 21:15:38.189,0
-0.672,0.352,0.648,1.709,-2.014,1.038,2024-01-16 21:15:38.249,0
-0.672,0.352,0.648,1.709,-2.014,1.038,2024-01-16 21:15:38.250,0
-0.667,0.348,0.645,0.0,-1.953,2.686,2024-01-16 21:15:38.370,0
-0.667,0.348,0.645,0.0,-1.953,2.686,2024-01-16 21:15:38.371,0
-0.685,0.358,0.646,-1.16,-2.625,2.319,2024-01-16 21:15:38.481,0
-0.685,0.358,0.646,-1.16,-2.625,2.319,2024-01-16 21:15:38.482,0
-0.671,0.365,0.654,-1.465,-1.953,2.625,2024-01-16 21:15:38.580,0
-0.671,0.365,0.654,-1.465,-1.953,2.625,2024-01-16 21:15:38.580,0
-0.69,0.368,0.662,-1.831,-0.061,1.953,2024-01-16 21:15:38.680,0
-0.69,0.368,0.662,-1.831,-0.061,1.953,2024-01-16 21:15:38.680,0
-0.701,0.373,0.653,-0.183,2.136,2.258,2024-01-16 21:15:38.795,0
-0.701,0.373,0.653,-0.183,2.136,2.258,2024-01-16 21:15:38.795,0
-0.698,0.4,0.679,5.31,7.935,1.099,2024-01-16 21:15:38.850,0
-0.698,0.4,0.679,5.31,7.935,1.099,2024-01-16 21:15:38.850,0
-0.743,0.366,0.638,8.057,13.184,5.554,2024-01-16 21:15:39.100,0
-0.743,0.366,0.638,8.057,13.184,5.554,2024-01-16 21:15:39.100,0
-0.693,0.4,0.63,7.813,18.555,10.315,2024-01-16 21:15:39.710,0
-0.693,0.4,0.63,7.813,18.555,10.315,2024-01-16 21:15:39.710,0
-0.638,0.358,0.588,0.183,22.705,13.489,2024-01-16 21:15:39.181,0
-0.638,0.358,0.588,0.183,22.705,13.489,2024-01-16 21:15:39.181,0
-0.667,0.388,0.541,-1.648,11.597,12.451,2024-01-16 21:15:39.269,0
-0.667,0.388,0.541,-1.648,11.597,12.451,2024-01-16 21:15:39.269,0
-0.706,0.442,0.541,-9.155,3.723,10.559,2024-01-16 21:15:39.392,0
-0.706,0.442,0.541,-9.155,3.723,10.559,2024-01-16 21:15:39.392,0
-0.687,0.483,0.563,-5.92,0.427,7.263,2024-01-16 21:15:39.480,0
-0.687,0.483,0.563,-5.92,0.427,7.263,2024-01-16 21:15:39.480,0
-0.76,0.465,0.545,1.648,-0.671,-6.409,2024-01-16 21:15:39.599,0
-0.76,0.465,0.545,1.648,-0.671,-6.409,2024-01-16 21:15:39.599,0
-0.912,0.523,0.527,8.728,1.77,-6.958,2024-01-16 21:15:39.677,0
-0.912,0.523,0.527,8.728,1.77,-6.958,2024-01-16 21:15:39.678,0
-0.456,0.395,0.396,8.423,29.785,-1.77,2024-01-16 21:15:39.783,0
-0.456,0.395,0.396,8.423,29.785,-1.77,2024-01-16 21:15:39.783,0
0.044,0.511,0.318,14.404,59.937,-0.671,2024-01-16 21:15:39.871,0
0.044,0.511,0.318,14.404,59.937,-0.671,2024-01-16 21:15:39.871,0
-5.175,0.07,0.375,12.451,27.405,3.296,2024-01-16 21:15:39.992,0
-5.175,0.07,0.375,12.451,27.405,3.296,2024-01-16 21:15:39.992,0
-1.53,2.938,2.917,-7.019,-47.302,-21.79,2024-01-16 21:15:40.780,0
-1.53,2.938,2.917,-7.019,-47.302,-21.79,2024-01-16 21:15:40.780,0
-1.716,0.799,1.215,-51.758,-58.411,18.677,2024-01-16 21:15:40.199,0
-1.716,0.799,1.215,-51.758,-58.411,18.677,2024-01-16 21:15:40.201,0
-0.085,0.815,0.872,-37.659,-37.109,5.31,2024-01-16 21:15:40.272,0
-0.085,0.815,0.872,-37.659,-37.109,5.31,2024-01-16 21:15:40.273,0
0.015,0.07,-0.221,-8.24,35.461,28.015,2024-01-16 21:15:40.410,0
0.015,0.07,-0.221,-8.24,35.461,28.015,2024-01-16 21:15:40.411,0
0.184,-0.024,-0.328,38.574,-0.366,14.16,2024-01-16 21:15:40.481,0
0.184,-0.024,-0.328,38.574,-0.366,14.16,2024-01-16 21:15:40.481,0
0.005,-0.117,0.514,227.844,-292.48,-91.125,2024-01-16 21:15:40.588,0
0.005,-0.117,0.514,227.844,-292.48,-91.125,2024-01-16 21:15:40.588,0
-1.006,-0.118,0.134,39.063,258.484,-168.152,2024-01-16 21:15:40.677,0
-1.006,-0.118,0.134,39.063,258.484,-168.152,2024-01-16 21:15:40.678,0
-0.714,-1.13,2.053,319.58,-354.004,-331.177,2024-01-16 21:15:40.798,1
-0.714,-1.13,2.053,319.58,-354.004,-331.177,2024-01-16 21:15:40.798,1
-1.617,-0.063,1.125,10.376,-6.714,-1.587,2024-01-16 21:15:40.894,0
-1.617,-0.063,1.125,10.376,-6.714,-1.587,2024-01-16 21:15:40.894,0
-1.02,-0.251,1.019,28.442,-85.938,1.953,2024-01-16 21:15:41.900,1
-1.02,-0.251,1.019,28.442,-85.938,1.953,2024-01-16 21:15:41.900,1
-0.032,-0.063,0.061,4.822,-9.216,5.554,2024-01-16 21:15:41.730,0
-0.032,-0.063,0.061,4.822,-9.216,5.554,2024-01-16 21:15:41.730,0
0.013,-0.118,-0.542,-155.762,358.704,-3.967,2024-01-16 21:15:41.191,0
0.013,-0.118,-0.542,-155.762,358.704,-3.967,2024-01-16 21:15:41.192,0
0.029,-0.009,0.032,60.791,-163.94,-93.506,2024-01-16 21:15:41.280,0
0.029,-0.009,0.032,60.791,-163.94,-93.506,2024-01-16 21:15:41.281,0
-2.294,0.005,-0.052,123.291,-117.004,-58.96,2024-01-16 21:15:41.400,0
-2.294,0.005,-0.052,123.291,-117.004,-58.96,2024-01-16 21:15:41.400,0
-0.531,0.087,0.577,-58.96,-138.611,491.821,2024-01-16 21:15:41.490,0
-0.531,0.087,0.577,-58.96,-138.611,491.821,2024-01-16 21:15:41.490,0
-1.408,-0.001,1.94,-8.667,21.423,2.625,2024-01-16 21:15:41.609,1
-1.408,-0.001,1.94,-8.667,21.423,2.625,2024-01-16 21:15:41.610,1
-0.13,-0.6,1.049,1.038,-41.87,5.554,2024-01-16 21:15:41.679,1
-0.13,-0.6,1.049,1.038,-41.87,5.554,2024-01-16 21:15:41.680,1
0.017,-0.035,-0.063,-15.198,25.146,3.54,2024-01-16 21:15:41.822,0
0.017,-0.035,-0.063,-15.198,25.146,3.54,2024-01-16 21:15:41.822,0
0.334,-0.071,-0.251,-180.786,303.101,-36.377,2024-01-16 21:15:41.893,0
0.334,-0.071,-0.251,-180.786,303.101,-36.377,2024-01-16 21:15:41.893,0
-0.291,0.31,0.352,-22.461,-660.034,29.053,2024-01-16 21:15:41.998,0
-0.291,0.31,0.352,-22.461,-660.034,29.053,2024-01-16 21:15:41.998,0
-2.969,-0.288,0.192,294.922,-253.967,-104.492,2024-01-16 21:15:42.940,0
-2.969,-0.288,0.192,294.922,-253.967,-104.492,2024-01-16 21:15:42.940,0
-0.679,-0.73,1.144,-95.032,-355.286,396.79,2024-01-16 21:15:42.212,1
-0.679,-0.73,1.144,-95.032,-355.286,396.79,2024-01-16 21:15:42.212,1
-0.544,-0.028,0.668,-16.968,-1.77,15.076,2024-01-16 21:15:42.301,0
-0.544,-0.028,0.668,-16.968,-1.77,15.076,2024-01-16 21:15:42.301,0
-0.325,-0.18,0.441,10.01,-13.672,-6.104,2024-01-16 21:15:42.421,0
-0.325,-0.18,0.441,10.01,-13.672,-6.104,2024-01-16 21:15:42.421,0
-0.773,-0.117,0.155,7.629,-6.836,-9.277,2024-01-16 21:15:42.481,0
-0.773,-0.117,0.155,7.629,-6.836,-9.277,2024-01-16 21:15:42.481,0
-0.532,-0.299,0.799,12.085,-16.663,-7.568,2024-01-16 21:15:42.602,1
-0.532,-0.299,0.799,12.085,-16.663,-7.568,2024-01-16 21:15:42.602,1
-0.47,-0.191,0.624,-2.991,12.634,-13.184,2024-01-16 21:15:42.692,1
-0.47,-0.191,0.624,-2.991,12.634,-13.184,2024-01-16 21:15:42.692,1
-0.893,-0.099,0.787,21.79,-18.738,-13.916,2024-01-16 21:15:42.813,0
-0.893,-0.099,0.787,21.79,-18.738,-13.916,2024-01-16 21:15:42.813,0
-0.553,-0.374,0.639,10.559,0.916,-16.113,2024-01-16 21:15:42.902,1
-0.553,-0.374,0.639,10.559,0.916,-16.113,2024-01-16 21:15:42.903,1
-0.81,-0.152,0.757,11.841,-4.15,-9.399,2024-01-16 21:15:43.230,0
-0.81,-0.152,0.757,11.841,-4.15,-9.399,2024-01-16 21:15:43.230,0
-0.641,-0.328,0.736,9.888,5.554,-10.132,2024-01-16 21:15:43.780,1
-0.641,-0.328,0.736,9.888,5.554,-10.132,2024-01-16 21:15:43.780,1
-0.708,-0.208,0.713,1.77,8.118,-2.014,2024-01-16 21:15:43.232,1
-0.708,-0.208,0.713,1.77,8.118,-2.014,2024-01-16 21:15:43.232,1
-0.654,-0.24,0.719,1.77,10.071,-1.16,2024-01-16 21:15:43.295,1
-0.654,-0.24,0.719,1.77,10.071,-1.16,2024-01-16 21:15:43.296,1
-0.679,-0.182,0.717,3.296,9.705,-2.502,2024-01-16 21:15:43.409,1
-0.679,-0.182,0.717,3.296,9.705,-2.502,2024-01-16 21:15:43.409,1
-0.687,-0.239,0.699,2.563,5.798,-2.686,2024-01-16 21:15:43.501,1
-0.687,-0.239,0.699,2.563,5.798,-2.686,2024-01-16 21:15:43.501,1
-0.674,-0.217,0.684,4.7,6.104,-7.813,2024-01-16 21:15:43.623,1
-0.674,-0.217,0.684,4.7,6.104,-7.813,2024-01-16 21:15:43.623,1
-0.682,-0.214,0.69,9.46,2.747,-12.207,2024-01-16 21:15:43.712,1
-0.682,-0.214,0.69,9.46,2.747,-12.207,2024-01-16 21:15:43.713,1
-0.684,-0.263,0.685,8.789,1.282,-11.658,2024-01-16 21:15:43.832,1
-0.684,-0.263,0.685,8.789,1.282,-11.658,2024-01-16 21:15:43.832,1
-0.672,-0.235,0.703,4.578,0.549,-8.606,2024-01-16 21:15:43.892,1
-0.672,-0.235,0.703,4.578,0.549,-8.606,2024-01-16 21:15:43.892,1
-0.679,-0.263,0.677,6.958,2.014,-9.033,2024-01-16 21:15:44.110,1
-0.679,-0.263,0.677,6.958,2.014,-9.033,2024-01-16 21:15:44.110,1
-0.708,-0.271,0.704,2.625,0.732,-5.188,2024-01-16 21:15:44.101,1
-0.708,-0.271,0.704,2.625,0.732,-5.188,2024-01-16 21:15:44.101,1
-0.681,-0.248,0.696,0.854,1.892,-4.028,2024-01-16 21:15:44.223,1
-0.681,-0.248,0.696,0.854,1.892,-4.028,2024-01-16 21:15:44.223,1
-0.65,-0.233,0.697,1.099,3.235,-4.578,2024-01-16 21:15:44.309,1
-0.65,-0.233,0.697,1.099,3.235,-4.578,2024-01-16 21:15:44.309,1
-0.669,-0.217,0.694,7.263,2.93,-8.362,2024-01-16 21:15:44.432,1
-0.669,-0.217,0.694,7.263,2.93,-8.362,2024-01-16 21:15:44.432,1
-0.688,-0.275,0.691,8.911,0.732,-5.371,2024-01-16 21:15:44.492,1
-0.688,-0.275,0.691,8.911,0.732,-5.371,2024-01-16 21:15:44.492,1
-0.684,-0.281,0.687,5.249,1.038,-1.099,2024-01-16 21:15:44.641,1
-0.684,-0.281,0.687,5.249,1.038,-1.099,2024-01-16 21:15:44.642,1
-0.692,-0.253,0.696,1.282,0.61,1.465,2024-01-16 21:15:44.699,1
-0.692,-0.253,0.696,1.282,0.61,1.465,2024-01-16 21:15:44.699,1
-0.665,-0.254,0.688,-0.366,0.183,1.831,2024-01-16 21:15:44.821,1
-0.665,-0.254,0.688,-0.366,0.183,1.831,2024-01-16 21:15:44.822,1
-0.696,-0.237,0.684,-1.404,-0.671,0.366,2024-01-16 21:15:44.943,1
-0.696,-0.237,0.684,-1.404,-0.671,0.366,2024-01-16 21:15:44.943,1
-0.713,-0.252,0.678,-1.831,-1.465,-0.244,2024-01-16 21:15:45.310,1
-0.713,-0.252,0.678,-1.831,-1.465,-0.244,2024-01-16 21:15:45.310,1
-0.699,-0.257,0.684,-2.136,-0.061,0.061,2024-01-16 21:15:45.124,1
-0.699,-0.257,0.684,-2.136,-0.061,0.061,2024-01-16 21:15:45.124,1
-0.708,-0.256,0.674,-3.784,0.366,1.16,2024-01-16 21:15:45.244,1
-0.708,-0.256,0.674,-3.784,0.366,1.16,2024-01-16 21:15:45.245,1
-0.657,-0.251,0.686,-1.343,3.113,-1.77,2024-01-16 21:15:45.302,1
-0.657,-0.251,0.686,-1.343,3.113,-1.77,2024-01-16 21:15:45.302,1
-0.681,-0.255,0.681,-0.854,1.526,-1.343,2024-01-16 21:15:45.420,1
-0.681,-0.255,0.681,-0.854,1.526,-1.343,2024-01-16 21:15:45.421,1
-0.681,-0.251,0.689,-0.488,-0.244,-0.854,2024-01-16 21:15:45.513,1
-0.681,-0.251,0.689,-0.488,-0.244,-0.854,2024-01-16 21:15:45.513,1
-0.681,-0.261,0.685,0.854,-0.793,-0.854,2024-01-16 21:15:45.631,1
-0.681,-0.261,0.685,0.854,-0.793,-0.854,2024-01-16 21:15:45.632,1
-0.685,-0.261,0.688,0.122,-2.075,0.671,2024-01-16 21:15:45.723,1
-0.685,-0.261,0.688,0.122,-2.075,0.671,2024-01-16 21:15:45.723,1
-0.676,-0.262,0.689,-0.061,-0.977,0.854,2024-01-16 21:15:45.843,1
-0.676,-0.262,0.689,-0.061,-0.977,0.854,2024-01-16 21:15:45.843,1
-0.682,-0.256,0.686,-0.244,-0.427,1.221,2024-01-16 21:15:45.900,1
-0.682,-0.256,0.686,-0.244,-0.427,1.221,2024-01-16 21:15:45.900,1
-0.689,-0.253,0.688,-0.549,-0.549,1.831,2024-01-16 21:15:46.101,1
-0.689,-0.253,0.688,-0.549,-0.549,1.831,2024-01-16 21:15:46.101,1
-0.686,-0.25,0.69,-0.244,0.732,1.404,2024-01-16 21:15:46.111,1
-0.686,-0.25,0.69,-0.244,0.732,1.404,2024-01-16 21:15:46.111,1
-0.69,-0.252,0.681,-0.549,-0.244,1.404,2024-01-16 21:15:46.232,1
-0.69,-0.252,0.681,-0.549,-0.244,1.404,2024-01-16 21:15:46.233,1
-0.685,-0.252,0.685,-0.305,-0.244,0.183,2024-01-16 21:15:46.322,1
-0.685,-0.252,0.685,-0.305,-0.244,0.183,2024-01-16 21:15:46.323,1
-0.681,-0.249,0.685,-0.305,-0.061,-0.122,2024-01-16 21:15:46.441,1
-0.681,-0.249,0.685,-0.305,-0.061,-0.122,2024-01-16 21:15:46.442,1
-0.68,-0.25,0.685,0.122,0.61,-0.671,2024-01-16 21:15:46.534,1
-0.68,-0.25,0.685,0.122,0.61,-0.671,2024-01-16 21:15:46.535,1
-0.663,-0.226,0.69,2.747,1.404,-1.343,2024-01-16 21:15:46.657,1
-0.663,-0.226,0.69,2.747,1.404,-1.343,2024-01-16 21:15:46.657,1
-0.679,-0.278,0.678,2.686,-1.282,0.671,2024-01-16 21:15:46.711,1
-0.679,-0.278,0.678,2.686,-1.282,0.671,2024-01-16 21:15:46.711,1
-0.684,-0.269,0.686,-2.38,-2.991,2.869,2024-01-16 21:15:46.831,1
-0.684,-0.269,0.686,-2.38,-2.991,2.869,2024-01-16 21:15:46.832,1
-0.688,-0.249,0.69,-3.967,-3.418,2.869,2024-01-16 21:15:46.921,1
-0.688,-0.249,0.69,-3.967,-3.418,2.869,2024-01-16 21:15:46.922,1
-0.688,-0.206,0.687,0.305,-2.136,2.136,2024-01-16 21:15:47.410,1
-0.688,-0.206,0.687,0.305,-2.136,2.136,2024-01-16 21:15:47.420,1
-0.647,-0.248,0.704,1.648,-2.197,-2.502,2024-01-16 21:15:47.131,1
-0.647,-0.248,0.704,1.648,-2.197,-2.502,2024-01-16 21:15:47.131,1
-0.655,-0.268,0.699,2.747,-0.671,-3.967,2024-01-16 21:15:47.251,1
-0.655,-0.268,0.699,2.747,-0.671,-3.967,2024-01-16 21:15:47.251,1
-0.67,-0.26,0.701,-0.122,-2.93,-0.244,2024-01-16 21:15:47.310,1
-0.67,-0.26,0.701,-0.122,-2.93,-0.244,2024-01-16 21:15:47.310,1
-0.669,-0.25,0.703,-3.296,-3.113,4.517,2024-01-16 21:15:47.472,1
-0.669,-0.25,0.703,-3.296,-3.113,4.517,2024-01-16 21:15:47.472,1
-0.656,-0.238,0.713,-5.615,-1.648,6.531,2024-01-16 21:15:47.523,1
-0.656,-0.238,0.713,-5.615,-1.648,6.531,2024-01-16 21:15:47.523,1
-0.659,-0.235,0.71,-3.967,-0.854,4.456,2024-01-16 21:15:47.642,1
-0.659,-0.235,0.71,-3.967,-0.854,4.456,2024-01-16 21:15:47.642,1
-0.663,-0.241,0.703,-2.502,-0.671,2.625,2024-01-16 21:15:47.790,1
-0.663,-0.241,0.703,-2.502,-0.671,2.625,2024-01-16 21:15:47.790,1
-0.67,-0.24,0.708,-1.099,-1.404,0.854,2024-01-16 21:15:47.853,1
-0.67,-0.24,0.708,-1.099,-1.404,0.854,2024-01-16 21:15:47.853,1
-0.672,-0.239,0.708,-0.366,-0.488,-0.061,2024-01-16 21:15:47.942,1
-0.672,-0.239,0.708,-0.366,-0.488,-0.061,2024-01-16 21:15:47.942,1
-0.667,-0.244,0.707,0.122,0.732,-1.16,2024-01-16 21:15:48.790,1
-0.667,-0.244,0.707,0.122,0.732,-1.16,2024-01-16 21:15:48.800,1
-0.654,-0.251,0.707,0.732,1.099,-2.136,2024-01-16 21:15:48.154,1
-0.654,-0.251,0.707,0.732,1.099,-2.136,2024-01-16 21:15:48.155,1
-0.673,-0.257,0.698,0.0,1.404,-0.793,2024-01-16 21:15:48.283,1
-0.673,-0.257,0.698,0.0,1.404,-0.793,2024-01-16 21:15:48.284,1
-0.663,-0.26,0.7,-0.549,0.488,-0.183,2024-01-16 21:15:48.332,1
-0.663,-0.26,0.7,-0.549,0.488,-0.183,2024-01-16 21:15:48.332,1
-0.679,-0.256,0.7,-0.793,-0.244,0.549,2024-01-16 21:15:48.480,1
-0.679,-0.256,0.7,-0.793,-0.244,0.549,2024-01-16 21:15:48.480,1
-0.676,-0.257,0.701,-1.282,-0.366,1.099,2024-01-16 21:15:48.541,1
-0.676,-0.257,0.701,-1.282,-0.366,1.099,2024-01-16 21:15:48.541,1
-0.666,-0.251,0.695,-1.77,0.549,0.671,2024-01-16 21:15:48.690,1
-0.666,-0.251,0.695,-1.77,0.549,0.671,2024-01-16 21:15:48.691,1
-0.668,-0.252,0.695,-0.183,0.61,-0.122,2024-01-16 21:15:48.720,1
-0.668,-0.252,0.695,-0.183,0.61,-0.122,2024-01-16 21:15:48.721,1
-0.666,-0.249,0.698,1.038,0.0,-0.793,2024-01-16 21:15:48.903,1
-0.666,-0.249,0.698,1.038,0.0,-0.793,2024-01-16 21:15:48.903,1
-0.658,-0.259,0.703,0.854,0.244,-0.305,2024-01-16 21:15:48.992,1
-0.658,-0.259,0.703,0.854,0.244,-0.305,2024-01-16 21:15:48.992,1
-0.661,-0.252,0.705,0.916,0.427,-0.671,2024-01-16 21:15:49.229,1
-0.661,-0.252,0.705,0.916,0.427,-0.671,2024-01-16 21:15:49.230,1
-0.664,-0.252,0.706,0.793,-0.244,-0.061,2024-01-16 21:15:49.231,1
-0.664,-0.252,0.706,0.793,-0.244,-0.061,2024-01-16 21:15:49.231,1
-0.676,-0.257,0.699,0.0,0.122,0.427,2024-01-16 21:15:49.282,1
-0.676,-0.257,0.699,0.0,0.122,0.427,2024-01-16 21:15:49.282,1
-0.671,-0.246,0.705,-0.366,-0.488,0.61,2024-01-16 21:15:49.353,1
-0.671,-0.246,0.705,-0.366,-0.488,0.61,2024-01-16 21:15:49.353,1
-0.673,-0.245,0.704,-0.366,-0.122,0.366,2024-01-16 21:15:49.503,1
-0.673,-0.245,0.704,-0.366,-0.122,0.366,2024-01-16 21:15:49.503,1
-0.67,-0.25,0.702,0.244,0.0,-0.183,2024-01-16 21:15:49.589,1
-0.67,-0.25,0.702,0.244,0.0,-0.183,2024-01-16 21:15:49.589,1
-0.671,-0.246,0.704,0.0,0.61,-0.427,2024-01-16 21:15:49.682,1
-0.671,-0.246,0.704,0.0,0.61,-0.427,2024-01-16 21:15:49.682,1
-0.67,-0.255,0.7,-0.366,0.732,0.0,2024-01-16 21:15:49.741,1
-0.67,-0.255,0.7,-0.366,0.732,0.0,2024-01-16 21:15:49.741,1
-0.667,-0.246,0.704,0.0,-0.122,-0.061,2024-01-16 21:15:49.923,1
-0.667,-0.246,0.704,0.0,-0.122,-0.061,2024-01-16 21:15:49.923,1
-0.672,-0.25,0.703,-0.183,0.0,0.122,2024-01-16 21:15:49.952,1
-0.672,-0.25,0.703,-0.183,0.0,0.122,2024-01-16 21:15:49.953,1
-0.671,-0.251,0.703,-0.061,-0.488,0.671,2024-01-16 21:15:50.810,1
-0.671,-0.251,0.703,-0.061,-0.488,0.671,2024-01-16 21:15:50.820,1
-0.666,-0.26,0.699,-0.122,0.122,0.671,2024-01-16 21:15:50.132,1
-0.666,-0.26,0.699,-0.122,0.122,0.671,2024-01-16 21:15:50.133,1
-0.667,-0.254,0.693,0.0,-0.61,3.479,2024-01-16 21:15:50.282,1
-0.667,-0.254,0.693,0.0,-0.61,3.479,2024-01-16 21:15:50.282,1
-0.661,-0.226,0.711,0.061,-1.709,2.014,2024-01-16 21:15:50.344,1
-0.661,-0.226,0.711,0.061,-1.709,2.014,2024-01-16 21:15:50.345,1
-0.673,-0.236,0.705,1.953,-0.549,-1.709,2024-01-16 21:15:50.492,1
-0.673,-0.236,0.705,1.953,-0.549,-1.709,2024-01-16 21:15:50.493,1
-0.659,-0.25,0.703,0.488,0.183,-1.892,2024-01-16 21:15:50.553,1
-0.659,-0.25,0.703,0.488,0.183,-1.892,2024-01-16 21:15:50.553,1
-0.675,-0.255,0.704,-1.404,0.671,0.0,2024-01-16 21:15:50.680,1
-0.675,-0.255,0.704,-1.404,0.671,0.0,2024-01-16 21:15:50.680,1
-0.667,-0.243,0.7,-2.747,0.488,2.93,2024-01-16 21:15:50.779,1
-0.667,-0.243,0.7,-2.747,0.488,2.93,2024-01-16 21:15:50.779,1
-0.675,-0.241,0.708,-2.441,-0.061,2.441,2024-01-16 21:15:50.882,1
-0.675,-0.241,0.708,-2.441,-0.061,2.441,2024-01-16 21:15:50.882,1
-0.683,-0.247,0.703,-1.526,0.0,1.587,2024-01-16 21:15:50.943,1
-0.683,-0.247,0.703,-1.526,0.0,1.587,2024-01-16 21:15:50.944,1
-0.702,-0.24,0.703,-2.38,0.305,1.282,2024-01-16 21:15:51.770,1
-0.702,-0.24,0.703,-2.38,0.305,1.282,2024-01-16 21:15:51.770,1
-0.684,-0.222,0.704,-0.427,3.174,-2.625,2024-01-16 21:15:51.153,1
-0.684,-0.222,0.704,-0.427,3.174,-2.625,2024-01-16 21:15:51.153,1
-0.668,-0.287,0.696,2.808,5.249,-5.432,2024-01-16 21:15:51.281,1
-0.668,-0.287,0.696,2.808,5.249,-5.432,2024-01-16 21:15:51.282,1
-0.763,-0.283,0.686,-2.93,5.981,1.038,2024-01-16 21:15:51.381,1
-0.763,-0.283,0.686,-2.93,5.981,1.038,2024-01-16 21:15:51.382,1
-0.857,-0.325,0.685,-8.362,11.841,6.897,2024-01-16 21:15:51.499,1
-0.857,-0.325,0.685,-8.362,11.841,6.897,2024-01-16 21:15:51.499,1
-0.446,-0.375,0.605,-20.325,31.616,8.728,2024-01-16 21:15:51.542,1
-0.446,-0.375,0.605,-20.325,31.616,8.728,2024-01-16 21:15:51.542,1
-0.224,-0.031,0.283,-51.086,71.35,19.409,2024-01-16 21:15:51.692,0
-0.224,-0.031,0.283,-51.086,71.35,19.409,2024-01-16 21:15:51.692,0
-4.84,-0.051,0.518,-10.62,35.095,-13.794,2024-01-16 21:15:51.753,0
-4.84,-0.051,0.518,-10.62,35.095,-13.794,2024-01-16 21:15:51.753,0
-1.218,-2.453,2.428,-11.963,6.409,-8.911,2024-01-16 21:15:51.875,1
-1.218,-2.453,2.428,-11.963,6.409,-8.911,2024-01-16 21:15:51.876,1
-1.648,-0.479,1.044,15.503,-36.804,-5.005,2024-01-16 21:15:51.979,1
-1.648,-0.479,1.044,15.503,-36.804,-5.005,2024-01-16 21:15:51.979,1
-1.139,-0.731,1.291,36.56,-90.454,9.949,2024-01-16 21:15:52.810,1
-1.139,-0.731,1.291,36.56,-90.454,9.949,2024-01-16 21:15:52.810,1
0.002,-0.38,0.305,-13.184,-18.433,16.907,2024-01-16 21:15:52.202,1
0.002,-0.38,0.305,-13.184,-18.433,16.907,2024-01-16 21:15:52.202,1
0.001,0.004,-0.035,-63.232,285.339,-42.236,2024-01-16 21:15:52.292,0
0.001,0.004,-0.035,-63.232,285.339,-42.236,2024-01-16 21:15:52.293,0
0.306,-0.0,-0.004,82.092,37.659,-34.607,2024-01-16 21:15:52.371,0
0.306,-0.0,-0.004,82.092,37.659,-34.607,2024-01-16 21:15:52.371,0
-0.648,0.062,0.486,-256.47,281.494,-88.379,2024-01-16 21:15:52.483,0
-0.648,0.062,0.486,-256.47,281.494,-88.379,2024-01-16 21:15:52.483,0
-1.264,-0.053,1.037,170.41,-597.046,-151.855,2024-01-16 21:15:52.582,0
-1.264,-0.053,1.037,170.41,-597.046,-151.855,2024-01-16 21:15:52.583,0
-0.583,-0.784,0.777,-74.097,100.586,17.151,2024-01-16 21:15:52.682,1
-0.583,-0.784,0.777,-74.097,100.586,17.151,2024-01-16 21:15:52.682,1
-1.671,-0.083,1.509,48.462,-84.717,5.066,2024-01-16 21:15:52.782,0
-1.671,-0.083,1.509,48.462,-84.717,5.066,2024-01-16 21:15:52.782,0
-0.762,-0.842,1.124,31.738,-53.894,-7.263,2024-01-16 21:15:52.892,1
-0.762,-0.842,1.124,31.738,-53.894,-7.263,2024-01-16 21:15:52.893,1
-0.1,-0.301,0.237,-17.517,0.854,9.399,2024-01-16 21:15:52.956,1
-0.1,-0.301,0.237,-17.517,0.854,9.399,2024-01-16 21:15:52.956,1
0.004,-0.017,-0.097,-56.946,146.912,-9.949,2024-01-16 21:15:53.101,0
0.004,-0.017,-0.097,-56.946,146.912,-9.949,2024-01-16 21:15:53.101,0
0.399,-0.001,-0.019,-32.898,113.464,-29.846,2024-01-16 21:15:53.191,0
0.399,-0.001,-0.019,-32.898,113.464,-29.846,2024-01-16 21:15:53.192,0
-2.033,0.04,0.696,-80.322,179.443,-64.087,2024-01-16 21:15:53.282,0
-2.033,0.04,0.696,-80.322,179.443,-64.087,2024-01-16 21:15:53.282,0
-1.058,-1.21,0.916,-30.579,-283.569,655.029,2024-01-16 21:15:53.381,1
-1.058,-1.21,0.916,-30.579,-283.569,655.029,2024-01-16 21:15:53.381,1
-1.782,-0.57,0.378,22.217,95.886,-29.724,2024-01-16 21:15:53.488,0
-1.782,-0.57,0.378,22.217,95.886,-29.724,2024-01-16 21:15:53.488,0
-1.311,-0.519,0.913,14.587,-70.068,-2.136,2024-01-16 21:15:53.581,1
-1.311,-0.519,0.913,14.587,-70.068,-2.136,2024-01-16 21:15:53.581,1
-0.215,-0.471,0.828,3.296,-50.842,12.634,2024-01-16 21:15:53.698,1
-0.215,-0.471,0.828,3.296,-50.842,12.634,2024-01-16 21:15:53.698,1
0.042,-0.085,-0.053,-22.583,5.005,8.972,2024-01-16 21:15:53.780,0
0.042,-0.085,-0.053,-22.583,5.005,8.972,2024-01-16 21:15:53.781,0
-0.04,0.054,-0.525,-135.437,449.951,-16.113,2024-01-16 21:15:53.882,0
-0.04,0.054,-0.525,-135.437,449.951,-16.113,2024-01-16 21:15:53.882,0
-0.061,0.018,-0.074,93.262,-70.862,13.611,2024-01-16 21:15:53.982,0
-0.061,0.018,-0.074,93.262,-70.862,13.611,2024-01-16 21:15:53.982,0
-4.277,0.093,0.071,-0.977,-285.828,-80.566,2024-01-16 21:15:54.960,0
-4.277,0.093,0.071,-0.977,-285.828,-80.566,2024-01-16 21:15:54.960,0
-0.13,-0.135,2.078,-145.325,-168.884,676.086,2024-01-16 21:15:54.195,1
-0.13,-0.135,2.078,-145.325,-168.884,676.086,2024-01-16 21:15:54.195,1
-1.04,0.065,1.313,-34.058,34.668,2.38,2024-01-16 21:15:54.302,0
-1.04,0.065,1.313,-34.058,34.668,2.38,2024-01-16 21:15:54.302,0
-0.378,-0.338,0.538,12.085,-14.893,-0.61,2024-01-16 21:15:54.384,1
-0.378,-0.338,0.538,12.085,-14.893,-0.61,2024-01-16 21:15:54.384,1
-0.604,-0.128,0.396,14.282,-19.897,-4.211,2024-01-16 21:15:54.542,0
-0.604,-0.128,0.396,14.282,-19.897,-4.211,2024-01-16 21:15:54.543,0
-0.799,-0.193,0.44,14.954,-23.254,-1.77,2024-01-16 21:15:54.582,0
-0.799,-0.193,0.44,14.954,-23.254,-1.77,2024-01-16 21:15:54.582,0
-0.843,-0.173,0.702,11.23,-19.897,2.441,2024-01-16 21:15:54.692,0
-0.843,-0.173,0.702,11.23,-19.897,2.441,2024-01-16 21:15:54.692,0
-0.625,-0.234,0.687,9.521,-7.263,-8.85,2024-01-16 21:15:54.782,1
-0.625,-0.234,0.687,9.521,-7.263,-8.85,2024-01-16 21:15:54.782,1
-0.779,-0.138,0.692,6.714,-7.751,-6.042,2024-01-16 21:15:54.902,0
-0.779,-0.138,0.692,6.714,-7.751,-6.042,2024-01-16 21:15:54.902,0
-0.716,-0.187,0.695,4.456,-2.441,-4.761,2024-01-16 21:15:54.991,1
-0.716,-0.187,0.695,4.456,-2.441,-4.761,2024-01-16 21:15:54.992,1
-0.744,-0.132,0.697,5.249,3.357,-2.563,2024-01-16 21:15:55.113,0
-0.744,-0.132,0.697,5.249,3.357,-2.563,2024-01-16 21:15:55.114,0
-0.735,-0.154,0.691,4.272,4.944,0.183,2024-01-16 21:15:55.181,0
-0.735,-0.154,0.691,4.272,4.944,0.183,2024-01-16 21:15:55.182,0
-0.716,-0.157,0.691,1.099,8.667,0.427,2024-01-16 21:15:55.291,0
-0.716,-0.157,0.691,1.099,8.667,0.427,2024-01-16 21:15:55.292,0
-0.687,-0.14,0.668,-0.183,9.399,0.0,2024-01-16 21:15:55.380,0
-0.687,-0.14,0.668,-0.183,9.399,0.0,2024-01-16 21:15:55.381,0
-0.734,-0.141,0.659,-0.549,4.333,-0.061,2024-01-16 21:15:55.500,0
-0.734,-0.141,0.659,-0.549,4.333,-0.061,2024-01-16 21:15:55.500,0
-0.716,-0.162,0.655,-0.183,0.61,-1.404,2024-01-16 21:15:55.591,0
-0.716,-0.162,0.655,-0.183,0.61,-1.404,2024-01-16 21:15:55.592,0
-0.759,-0.157,0.652,-2.197,-3.235,0.183,2024-01-16 21:15:55.710,0
-0.759,-0.157,0.652,-2.197,-3.235,0.183,2024-01-16 21:15:55.710,0
-0.756,-0.161,0.665,-1.16,-2.625,1.587,2024-01-16 21:15:55.771,0
-0.756,-0.161,0.665,-1.16,-2.625,1.587,2024-01-16 21:15:55.771,0
-0.753,-0.173,0.658,-3.662,0.671,2.869,2024-01-16 21:15:55.921,0
-0.753,-0.173,0.658,-3.662,0.671,2.869,2024-01-16 21:15:55.922,0
-0.752,-0.167,0.658,-3.479,1.526,3.723,2024-01-16 21:15:55.978,0
-0.752,-0.167,0.658,-3.479,1.526,3.723,2024-01-16 21:15:55.978,0
-0.765,-0.168,0.647,-4.822,3.174,4.822,2024-01-16 21:15:56.178,0
-0.765,-0.168,0.647,-4.822,3.174,4.822,2024-01-16 21:15:56.178,0
-0.747,-0.157,0.641,-5.493,2.869,5.127,2024-01-16 21:15:56.253,0
-0.747,-0.157,0.641,-5.493,2.869,5.127,2024-01-16 21:15:56.253,0
-0.732,-0.169,0.631,-6.104,2.136,5.127,2024-01-16 21:15:56.343,0
-0.732,-0.169,0.631,-6.104,2.136,5.127,2024-01-16 21:15:56.343,0
-0.736,-0.153,0.636,-7.019,-0.549,7.813,2024-01-16 21:15:56.432,0
-0.736,-0.153,0.636,-7.019,-0.549,7.813,2024-01-16 21:15:56.433,0
-0.762,-0.127,0.653,-4.883,-3.418,6.836,2024-01-16 21:15:56.521,0
-0.762,-0.127,0.653,-4.883,-3.418,6.836,2024-01-16 21:15:56.522,0
-0.756,-0.163,0.65,-2.869,-2.93,2.258,2024-01-16 21:15:56.581,0
-0.756,-0.163,0.65,-2.869,-2.93,2.258,2024-01-16 21:15:56.582,0
-0.773,-0.149,0.648,-4.211,-0.916,0.916,2024-01-16 21:15:56.700,0
-0.773,-0.149,0.648,-4.211,-0.916,0.916,2024-01-16 21:15:56.700,0
-0.751,-0.154,0.652,-3.052,1.953,0.732,2024-01-16 21:15:56.793,0
-0.751,-0.154,0.652,-3.052,1.953,0.732,2024-01-16 21:15:56.793,0
-0.762,-0.145,0.653,-1.892,3.357,0.977,2024-01-16 21:15:56.912,0
-0.762,-0.145,0.653,-1.892,3.357,0.977,2024-01-16 21:15:56.912,0
-0.717,-0.134,0.647,1.099,3.906,0.427,2024-01-16 21:15:57.330,0
-0.717,-0.134,0.647,1.099,3.906,0.427,2024-01-16 21:15:57.330,0
-0.722,-0.167,0.632,1.831,2.991,-2.014,2024-01-16 21:15:57.155,0
-0.722,-0.167,0.632,1.831,2.991,-2.014,2024-01-16 21:15:57.155,0
-0.709,-0.159,0.64,0.61,-2.502,-2.075,2024-01-16 21:15:57.213,0
-0.709,-0.159,0.64,0.61,-2.502,-2.075,2024-01-16 21:15:57.213,0
-0.788,-0.155,0.647,1.099,-6.409,-0.366,2024-01-16 21:15:57.332,0
-0.788,-0.155,0.647,1.099,-6.409,-0.366,2024-01-16 21:15:57.332,0
-0.749,-0.172,0.648,0.977,-5.493,-0.305,2024-01-16 21:15:57.392,0
-0.749,-0.172,0.648,0.977,-5.493,-0.305,2024-01-16 21:15:57.392,0
-0.723,-0.168,0.651,-2.014,-1.099,-0.488,2024-01-16 21:15:57.512,0
-0.723,-0.168,0.651,-2.014,-1.099,-0.488,2024-01-16 21:15:57.513,0
-0.751,-0.135,0.665,0.916,-1.831,0.427,2024-01-16 21:15:57.692,0
-0.751,-0.135,0.665,0.916,-1.831,0.427,2024-01-16 21:15:57.692,0
-0.731,-0.161,0.655,2.869,0.0,-0.977,2024-01-16 21:15:57.722,0
-0.731,-0.161,0.655,2.869,0.0,-0.977,2024-01-16 21:15:57.722,0
-0.748,-0.167,0.658,0.549,0.427,0.427,2024-01-16 21:15:57.812,0
-0.748,-0.167,0.658,0.549,0.427,0.427,2024-01-16 21:15:57.812,0
-0.764,-0.155,0.652,-0.61,0.916,-0.305,2024-01-16 21:15:57.929,0
-0.764,-0.155,0.652,-0.61,0.916,-0.305,2024-01-16 21:15:57.930,0
-0.745,-0.136,0.654,-0.244,2.38,-0.122,2024-01-16 21:15:57.993,0
-0.745,-0.136,0.654,-0.244,2.38,-0.122,2024-01-16 21:15:57.993,0
-0.748,-0.16,0.641,1.343,3.235,-2.075,2024-01-16 21:15:58.141,0
-0.748,-0.16,0.641,1.343,3.235,-2.075,2024-01-16 21:15:58.142,0
-0.739,-0.163,0.645,2.075,2.625,-4.578,2024-01-16 21:15:58.200,0
-0.739,-0.163,0.645,2.075,2.625,-4.578,2024-01-16 21:15:58.200,0
-0.756,-0.159,0.645,1.404,1.648,-3.906,2024-01-16 21:15:58.356,0
-0.756,-0.159,0.645,1.404,1.648,-3.906,2024-01-16 21:15:58.356,0
-0.761,-0.16,0.644,1.648,0.671,-2.563,2024-01-16 21:15:58.440,0
-0.761,-0.16,0.644,1.648,0.671,-2.563,2024-01-16 21:15:58.440,0
-0.744,-0.17,0.638,2.014,1.038,-2.319,2024-01-16 21:15:58.529,0
-0.744,-0.17,0.638,2.014,1.038,-2.319,2024-01-16 21:15:58.529,0
-0.76,-0.179,0.635,0.244,1.099,-1.526,2024-01-16 21:15:58.597,0
-0.76,-0.179,0.635,0.244,1.099,-1.526,2024-01-16 21:15:58.597,0
-0.757,-0.181,0.633,0.0,1.16,-0.61,2024-01-16 21:15:58.776,0
-0.757,-0.181,0.633,0.0,1.16,-0.61,2024-01-16 21:15:58.777,0
-0.746,-0.178,0.633,-0.671,0.732,0.732,2024-01-16 21:15:58.802,0
-0.746,-0.178,0.633,-0.671,0.732,0.732,2024-01-16 21:15:58.802,0
-0.768,-0.152,0.637,0.916,-0.916,-0.244,2024-01-16 21:15:58.923,0
-0.768,-0.152,0.637,0.916,-0.916,-0.244,2024-01-16 21:15:58.923,0
-0.734,-0.172,0.637,1.587,0.427,0.305,2024-01-16 21:15:59.110,0
-0.734,-0.172,0.637,1.587,0.427,0.305,2024-01-16 21:15:59.120,0
-0.752,-0.169,0.64,0.122,-0.305,0.366,2024-01-16 21:15:59.133,0
-0.752,-0.169,0.64,0.122,-0.305,0.366,2024-01-16 21:15:59.133,0
-0.747,-0.164,0.639,0.366,-0.977,0.549,2024-01-16 21:15:59.256,0
-0.747,-0.164,0.639,0.366,-0.977,0.549,2024-01-16 21:15:59.256,0
-0.753,-0.167,0.642,0.305,-0.793,0.549,2024-01-16 21:15:59.343,0
-0.753,-0.167,0.642,0.305,-0.793,0.549,2024-01-16 21:15:59.343,0
-0.761,-0.168,0.641,-0.305,-1.282,0.305,2024-01-16 21:15:59.433,0
-0.761,-0.168,0.641,-0.305,-1.282,0.305,2024-01-16 21:15:59.433,0
-0.738,-0.153,0.649,-0.183,-0.061,-0.427,2024-01-16 21:15:59.556,0
-0.738,-0.153,0.649,-0.183,-0.061,-0.427,2024-01-16 21:15:59.557,0
-0.753,-0.167,0.642,-0.732,0.671,0.977,2024-01-16 21:15:59.685,0
-0.753,-0.167,0.642,-0.732,0.671,0.977,2024-01-16 21:15:59.685,0
-0.743,-0.16,0.64,-0.916,0.549,1.587,2024-01-16 21:15:59.732,0
-0.743,-0.16,0.64,-0.916,0.549,1.587,2024-01-16 21:15:59.732,0
-0.757,-0.162,0.643,-0.793,-0.488,1.038,2024-01-16 21:15:59.823,0
-0.757,-0.162,0.643,-0.793,-0.488,1.038,2024-01-16 21:15:59.824,0
-0.749,-0.156,0.638,-0.793,-0.305,0.916,2024-01-16 21:15:59.942,0
-0.749,-0.156,0.638,-0.793,-0.305,0.916,2024-01-16 21:15:59.942,0
-0.753,-0.16,0.646,-0.427,-0.854,0.305,2024-01-16 21:16:00.000,0
-0.753,-0.16,0.646,-0.427,-0.854,0.305,2024-01-16 21:16:00.000,0
-0.749,-0.159,0.639,-0.61,-0.122,0.305,2024-01-16 21:16:00.151,0
-0.749,-0.159,0.639,-0.61,-0.122,0.305,2024-01-16 21:16:00.151,0
-0.747,-0.159,0.64,0.183,0.122,0.0,2024-01-16 21:16:00.210,0
-0.747,-0.159,0.64,0.183,0.122,0.0,2024-01-16 21:16:00.210,0
-0.76,-0.168,0.639,0.916,-0.916,-0.732,2024-01-16 21:16:00.382,0
-0.76,-0.168,0.639,0.916,-0.916,-0.732,2024-01-16 21:16:00.383,0
-0.742,-0.157,0.645,1.099,-0.427,-0.977,2024-01-16 21:16:00.423,0
-0.742,-0.157,0.645,1.099,-0.427,-0.977,2024-01-16 21:16:00.423,0
-0.74,-0.164,0.646,0.793,0.244,-1.099,2024-01-16 21:16:00.571,0
-0.74,-0.164,0.646,0.793,0.244,-1.099,2024-01-16 21:16:00.571,0
-0.749,-0.164,0.643,0.122,-0.122,-0.732,2024-01-16 21:16:00.633,0
-0.749,-0.164,0.643,0.122,-0.122,-0.732,2024-01-16 21:16:00.634,0
-0.744,-0.169,0.646,0.244,0.244,-0.427,2024-01-16 21:16:00.753,0
-0.744,-0.169,0.646,0.244,0.244,-0.427,2024-01-16 21:16:00.753,0
-0.75,-0.166,0.65,-0.305,0.061,0.122,2024-01-16 21:16:00.811,0
-0.75,-0.166,0.65,-0.305,0.061,0.122,2024-01-16 21:16:00.811,0
-0.752,-0.161,0.647,0.549,0.183,0.0,2024-01-16 21:16:00.932,0
-0.752,-0.161,0.647,0.549,0.183,0.0,2024-01-16 21:16:00.933,0
-0.753,-0.17,0.646,0.61,0.061,0.305,2024-01-16 21:16:01.220,0
-0.753,-0.17,0.646,0.61,0.061,0.305,2024-01-16 21:16:01.230,0
-0.741,-0.155,0.647,-0.244,-0.732,0.793,2024-01-16 21:16:01.200,0
-0.741,-0.155,0.647,-0.244,-0.732,0.793,2024-01-16 21:16:01.200,0
-0.744,-0.158,0.652,-0.244,-0.61,1.099,2024-01-16 21:16:01.230,0
-0.744,-0.158,0.652,-0.244,-0.61,1.099,2024-01-16 21:16:01.231,0
-0.753,-0.164,0.649,-0.793,-1.038,1.404,2024-01-16 21:16:01.353,0
-0.753,-0.164,0.649,-0.793,-1.038,1.404,2024-01-16 21:16:01.353,0
-0.746,-0.159,0.652,-0.854,0.427,2.014,2024-01-16 21:16:01.483,0
-0.746,-0.159,0.652,-0.854,0.427,2.014,2024-01-16 21:16:01.483,0
-0.747,-0.157,0.645,-0.427,0.732,1.648,2024-01-16 21:16:01.591,0
-0.747,-0.157,0.645,-0.427,0.732,1.648,2024-01-16 21:16:01.592,0
-0.753,-0.154,0.647,-0.793,0.061,0.61,2024-01-16 21:16:01.653,0
-0.753,-0.154,0.647,-0.793,0.061,0.61,2024-01-16 21:16:01.653,0
-0.746,-0.156,0.646,-0.366,0.549,0.549,2024-01-16 21:16:01.742,0
-0.746,-0.156,0.646,-0.366,0.549,0.549,2024-01-16 21:16:01.743,0
-0.752,-0.152,0.639,-0.732,-0.122,1.16,2024-01-16 21:16:01.830,0
-0.752,-0.152,0.639,-0.732,-0.122,1.16,2024-01-16 21:16:01.831,0
-0.759,-0.155,0.641,-0.183,-0.488,-0.427,2024-01-16 21:16:01.950,0
-0.759,-0.155,0.641,-0.183,-0.488,-0.427,2024-01-16 21:16:01.951,0
-0.751,-0.159,0.646,0.0,-0.122,-1.221,2024-01-16 21:16:02.102,0
-0.751,-0.159,0.646,0.0,-0.122,-1.221,2024-01-16 21:16:02.103,0
-0.761,-0.161,0.642,0.0,-0.244,-1.526,2024-01-16 21:16:02.173,0
-0.761,-0.161,0.642,0.0,-0.244,-1.526,2024-01-16 21:16:02.173,0
-0.755,-0.166,0.642,-0.488,1.465,-3.052,2024-01-16 21:16:02.221,0
-0.755,-0.166,0.642,-0.488,1.465,-3.052,2024-01-16 21:16:02.222,0
-0.747,-0.161,0.645,-1.099,1.465,-3.235,2024-01-16 21:16:02.343,0
-0.747,-0.161,0.645,-1.099,1.465,-3.235,2024-01-16 21:16:02.343,0
-0.732,-0.167,0.642,-0.793,1.526,-3.296,2024-01-16 21:16:02.431,0
-0.732,-0.167,0.642,-0.793,1.526,-3.296,2024-01-16 21:16:02.432,0
-0.745,-0.18,0.645,-0.122,0.122,-2.625,2024-01-16 21:16:02.554,0
-0.745,-0.18,0.645,-0.122,0.122,-2.625,2024-01-16 21:16:02.554,0
-0.741,-0.182,0.645,0.0,-1.404,-0.671,2024-01-16 21:16:02.640,0
-0.741,-0.182,0.645,0.0,-1.404,-0.671,2024-01-16 21:16:02.641,0
-0.752,-0.186,0.644,0.122,-1.77,0.732,2024-01-16 21:16:02.792,0
-0.752,-0.186,0.644,0.122,-1.77,0.732,2024-01-16 21:16:02.792,0
-0.75,-0.178,0.651,-1.099,-1.892,1.587,2024-01-16 21:16:02.851,0
-0.75,-0.178,0.651,-1.099,-1.892,1.587,2024-01-16 21:16:02.852,0
-0.74,-0.169,0.645,0.977,-1.221,1.038,2024-01-16 21:16:02.980,0
-0.74,-0.169,0.645,0.977,-1.221,1.038,2024-01-16 21:16:02.980,0
-0.751,-0.173,0.646,0.977,-0.488,1.282,2024-01-16 21:16:03.310,0
-0.751,-0.173,0.646,0.977,-0.488,1.282,2024-01-16 21:16:03.310,0
-0.74,-0.167,0.65,2.502,0.671,-1.648,2024-01-16 21:16:03.212,0
-0.74,-0.167,0.65,2.502,0.671,-1.648,2024-01-16 21:16:03.212,0
-0.742,-0.171,0.646,2.258,1.343,-1.892,2024-01-16 21:16:03.242,0
-0.742,-0.171,0.646,2.258,1.343,-1.892,2024-01-16 21:16:03.242,0
-0.741,-0.173,0.65,1.77,0.793,0.366,2024-01-16 21:16:03.393,0
-0.741,-0.173,0.65,1.77,0.793,0.366,2024-01-16 21:16:03.394,0
-0.733,-0.174,0.652,1.77,0.793,1.099,2024-01-16 21:16:03.578,0
-0.733,-0.174,0.652,1.77,0.793,1.099,2024-01-16 21:16:03.579,0
-0.747,-0.172,0.646,-0.061,-0.61,1.038,2024-01-16 21:16:03.579,0
-0.747,-0.172,0.646,-0.061,-0.61,1.038,2024-01-16 21:16:03.579,0
-0.745,-0.167,0.649,-0.671,-1.404,0.916,2024-01-16 21:16:03.693,0
-0.745,-0.167,0.649,-0.671,-1.404,0.916,2024-01-16 21:16:03.693,0
-0.748,-0.165,0.649,-1.648,-1.221,0.977,2024-01-16 21:16:03.778,0
-0.748,-0.165,0.649,-1.648,-1.221,0.977,2024-01-16 21:16:03.779,0
-0.741,-0.152,0.653,-1.648,-0.366,1.282,2024-01-16 21:16:03.882,0
-0.741,-0.152,0.653,-1.648,-0.366,1.282,2024-01-16 21:16:03.883,0
-0.752,-0.161,0.654,0.488,-0.305,0.427,2024-01-16 21:16:03.993,0
-0.752,-0.161,0.654,0.488,-0.305,0.427,2024-01-16 21:16:03.993,0
-0.745,-0.151,0.651,0.244,0.0,0.244,2024-01-16 21:16:04.550,0
-0.745,-0.151,0.651,0.244,0.0,0.244,2024-01-16 21:16:04.550,0
-0.734,-0.163,0.654,0.427,1.038,0.122,2024-01-16 21:16:04.182,0
-0.734,-0.163,0.654,0.427,1.038,0.122,2024-01-16 21:16:04.183,0
-0.744,-0.161,0.648,0.183,1.038,0.061,2024-01-16 21:16:04.232,0
-0.744,-0.161,0.648,0.183,1.038,0.061,2024-01-16 21:16:04.232,0
-0.752,-0.159,0.648,0.061,0.061,0.122,2024-01-16 21:16:04.379,0
-0.752,-0.159,0.648,0.061,0.061,0.122,2024-01-16 21:16:04.379,0
-0.749,-0.167,0.644,0.0,0.122,0.061,2024-01-16 21:16:04.442,0
-0.749,-0.167,0.644,0.0,0.122,0.061,2024-01-16 21:16:04.443,0
-0.746,-0.158,0.646,-0.61,-0.183,-0.122,2024-01-16 21:16:04.580,0
-0.746,-0.158,0.646,-0.61,-0.183,-0.122,2024-01-16 21:16:04.581,0
-0.748,-0.163,0.647,-0.122,0.427,-0.549,2024-01-16 21:16:04.653,0
-0.748,-0.163,0.647,-0.122,0.427,-0.549,2024-01-16 21:16:04.654,0
-0.75,-0.163,0.647,-0.061,0.61,-0.61,2024-01-16 21:16:04.772,0
-0.75,-0.163,0.647,-0.061,0.61,-0.61,2024-01-16 21:16:04.772,0
-0.728,-0.164,0.646,0.061,0.916,-0.793,2024-01-16 21:16:04.893,0
-0.728,-0.164,0.646,0.061,0.916,-0.793,2024-01-16 21:16:04.893,0
-0.76,-0.17,0.646,0.122,1.16,-0.916,2024-01-16 21:16:05.130,0
-0.76,-0.17,0.646,0.122,1.16,-0.916,2024-01-16 21:16:05.130,0
-0.745,-0.165,0.646,0.244,1.709,-0.61,2024-01-16 21:16:05.410,0
-0.745,-0.165,0.646,0.244,1.709,-0.61,2024-01-16 21:16:05.410,0
-0.75,-0.165,0.639,0.0,1.16,0.0,2024-01-16 21:16:05.180,0
-0.75,-0.165,0.639,0.0,1.16,0.0,2024-01-16 21:16:05.180,0
-0.757,-0.165,0.642,0.183,0.549,0.183,2024-01-16 21:16:05.251,0
-0.757,-0.165,0.642,0.183,0.549,0.183,2024-01-16 21:16:05.251,0
-0.746,-0.161,0.643,0.061,0.305,-0.061,2024-01-16 21:16:05.377,0
-0.746,-0.161,0.643,0.061,0.305,-0.061,2024-01-16 21:16:05.377,0
-0.771,-0.169,0.637,-0.061,1.16,-0.305,2024-01-16 21:16:05.480,0
-0.771,-0.169,0.637,-0.061,1.16,-0.305,2024-01-16 21:16:05.481,0
-0.794,-0.169,0.638,0.061,3.54,-0.916,2024-01-16 21:16:05.610,0
-0.794,-0.169,0.638,0.061,3.54,-0.916,2024-01-16 21:16:05.610,0
-0.823,-0.181,0.639,-0.244,8.484,-1.709,2024-01-16 21:16:05.642,0
-0.823,-0.181,0.639,-0.244,8.484,-1.709,2024-01-16 21:16:05.642,0
-0.816,-0.175,0.631,-1.404,17.517,-1.709,2024-01-16 21:16:05.792,0
-0.816,-0.175,0.631,-1.404,17.517,-1.709,2024-01-16 21:16:05.792,0
-0.823,-0.164,0.604,-1.16,25.696,-0.061,2024-01-16 21:16:05.852,0
-0.823,-0.164,0.604,-1.16,25.696,-0.061,2024-01-16 21:16:05.852,0
-0.86,-0.152,0.563,0.427,30.212,3.479,2024-01-16 21:16:05.975,0
-0.86,-0.152,0.563,0.427,30.212,3.479,2024-01-16 21:16:05.976,0
-0.341,-0.195,0.398,-2.014,42.542,3.296,2024-01-16 21:16:06.790,0
-0.341,-0.195,0.398,-2.014,42.542,3.296,2024-01-16 21:16:06.800,0
-0.569,-0.099,0.229,-21.912,54.749,6.409,2024-01-16 21:16:06.270,0
-0.569,-0.099,0.229,-21.912,54.749,6.409,2024-01-16 21:16:06.270,0
-1.172,0.026,0.381,15.076,20.264,-21.973,2024-01-16 21:16:06.270,0
-1.172,0.026,0.381,15.076,20.264,-21.973,2024-01-16 21:16:06.270,0
-1.518,-0.404,0.498,5.432,-0.244,-19.714,2024-01-16 21:16:06.422,0
-1.518,-0.404,0.498,5.432,-0.244,-19.714,2024-01-16 21:16:06.422,0
-1.653,-0.383,0.863,14.221,-44.983,-1.099,2024-01-16 21:16:06.452,1
-1.653,-0.383,0.863,14.221,-44.983,-1.099,2024-01-16 21:16:06.452,1
-1.138,-0.46,1.068,24.17,-76.721,5.188,2024-01-16 21:16:06.575,1
-1.138,-0.46,1.068,24.17,-76.721,5.188,2024-01-16 21:16:06.575,1
-0.095,-0.25,0.379,1.953,-42.969,2.197,2024-01-16 21:16:06.662,1
-0.095,-0.25,0.379,1.953,-42.969,2.197,2024-01-16 21:16:06.662,1
-0.008,-0.06,-0.073,-24.414,17.212,5.981,2024-01-16 21:16:06.781,0
-0.008,-0.06,-0.073,-24.414,17.212,5.981,2024-01-16 21:16:06.781,0
0.085,-0.0,-0.066,17.273,-29.968,10.071,2024-01-16 21:16:06.888,0
0.085,-0.0,-0.066,17.273,-29.968,10.071,2024-01-16 21:16:06.889,0
-1.047,0.064,0.087,-40.283,69.763,-16.052,2024-01-16 21:16:07.230,0
-1.047,0.064,0.087,-40.283,69.763,-16.052,2024-01-16 21:16:07.230,0
-0.974,0.103,0.725,-23.193,-48.462,144.592,2024-01-16 21:16:07.510,0
-0.974,0.103,0.725,-23.193,-48.462,144.592,2024-01-16 21:16:07.520,0
-1.586,-0.244,0.464,-36.621,64.514,2.563,2024-01-16 21:16:07.183,0
-1.586,-0.244,0.464,-36.621,64.514,2.563,2024-01-16 21:16:07.184,0
-1.267,-0.436,1.158,29.297,-78.308,-4.028,2024-01-16 21:16:07.274,1
-1.267,-0.436,1.158,29.297,-78.308,-4.028,2024-01-16 21:16:07.274,1
-0.736,-0.458,1.043,16.418,-64.758,4.761,2024-01-16 21:16:07.383,1
-0.736,-0.458,1.043,16.418,-64.758,4.761,2024-01-16 21:16:07.383,1
-0.018,-0.123,0.163,-23.499,-4.456,14.648,2024-01-16 21:16:07.562,0
-0.018,-0.123,0.163,-23.499,-4.456,14.648,2024-01-16 21:16:07.562,0
0.0,-0.007,-0.042,-66.345,272.278,-23.682,2024-01-16 21:16:07.591,0
0.0,-0.007,-0.042,-66.345,272.278,-23.682,2024-01-16 21:16:07.591,0
0.231,0.0,-0.006,121.887,-20.325,-37.231,2024-01-16 21:16:07.681,0
0.231,0.0,-0.006,121.887,-20.325,-37.231,2024-01-16 21:16:07.682,0
-2.009,0.01,0.328,-43.884,339.478,-23.56,2024-01-16 21:16:07.801,0
-2.009,0.01,0.328,-43.884,339.478,-23.56,2024-01-16 21:16:07.802,0
-0.694,-0.321,0.246,-1.892,-119.263,125.793,2024-01-16 21:16:07.877,0
-0.694,-0.321,0.246,-1.892,-119.263,125.793,2024-01-16 21:16:07.878,0
-1.563,-0.434,0.572,-27.527,58.472,-4.211,2024-01-16 21:16:07.980,1
-1.563,-0.434,0.572,-27.527,58.472,-4.211,2024-01-16 21:16:07.980,1
-1.176,-0.507,1.05,23.804,-77.271,15.015,2024-01-16 21:16:08.820,1
-1.176,-0.507,1.05,23.804,-77.271,15.015,2024-01-16 21:16:08.830,1
-1.042,-0.407,0.969,27.222,-77.515,8.972,2024-01-16 21:16:08.195,1
-1.042,-0.407,0.969,27.222,-77.515,8.972,2024-01-16 21:16:08.195,1
-0.095,-0.312,0.386,-6.104,-27.527,7.202,2024-01-16 21:16:08.281,1
-0.095,-0.312,0.386,-6.104,-27.527,7.202,2024-01-16 21:16:08.281,1
-0.022,-0.095,-0.226,-18.616,44.006,-22.278,2024-01-16 21:16:08.401,0
-0.022,-0.095,-0.226,-18.616,44.006,-22.278,2024-01-16 21:16:08.401,0
0.259,-0.019,-0.13,47.852,-44.067,32.654,2024-01-16 21:16:08.471,0
0.259,-0.019,-0.13,47.852,-44.067,32.654,2024-01-16 21:16:08.471,0
-1.453,0.218,0.434,-170.715,-54.077,64.697,2024-01-16 21:16:08.583,0
-1.453,0.218,0.434,-170.715,-54.077,64.697,2024-01-16 21:16:08.583,0
-1.638,-0.276,1.17,18.677,-180.054,-35.889,2024-01-16 21:16:08.700,1
-1.638,-0.276,1.17,18.677,-180.054,-35.889,2024-01-16 21:16:08.700,1
-1.272,-0.697,0.704,-13.123,32.593,-39.612,2024-01-16 21:16:08.791,1
-1.272,-0.697,0.704,-13.123,32.593,-39.612,2024-01-16 21:16:08.792,1
-0.609,-0.315,0.87,18.066,-36.743,0.549,2024-01-16 21:16:08.885,1
-0.609,-0.315,0.87,18.066,-36.743,0.549,2024-01-16 21:16:08.885,1
-0.349,-0.2,0.602,-1.099,-11.841,0.916,2024-01-16 21:16:09.000,1
-0.349,-0.2,0.602,-1.099,-11.841,0.916,2024-01-16 21:16:09.100,1
-0.472,-0.122,0.367,8.24,-27.832,3.601,2024-01-16 21:16:09.880,0
-0.472,-0.122,0.367,8.24,-27.832,3.601,2024-01-16 21:16:09.880,0
-0.995,-0.153,0.292,9.216,-26.917,4.395,2024-01-16 21:16:09.212,0
-0.995,-0.153,0.292,9.216,-26.917,4.395,2024-01-16 21:16:09.212,0
-0.524,-0.194,0.901,18.494,-30.029,3.906,2024-01-16 21:16:09.283,1
-0.524,-0.194,0.901,18.494,-30.029,3.906,2024-01-16 21:16:09.283,1
-0.701,-0.182,0.617,-2.686,1.221,-1.343,2024-01-16 21:16:09.392,0
-0.701,-0.182,0.617,-2.686,1.221,-1.343,2024-01-16 21:16:09.392,0
-0.867,-0.135,0.763,14.832,-14.771,-8.85,2024-01-16 21:16:09.483,0
-0.867,-0.135,0.763,14.832,-14.771,-8.85,2024-01-16 21:16:09.484,0
-0.566,-0.275,0.67,4.395,-2.075,-6.287,2024-01-16 21:16:09.671,1
-0.566,-0.275,0.67,4.395,-2.075,-6.287,2024-01-16 21:16:09.671,1
-0.768,-0.124,0.705,-1.343,1.831,-4.639,2024-01-16 21:16:09.691,0
-0.768,-0.124,0.705,-1.343,1.831,-4.639,2024-01-16 21:16:09.691,0
-0.67,-0.211,0.721,1.77,2.136,-6.714,2024-01-16 21:16:09.809,1
-0.67,-0.211,0.721,1.77,2.136,-6.714,2024-01-16 21:16:09.810,1
-0.707,-0.183,0.689,1.16,4.761,-3.357,2024-01-16 21:16:09.880,1
-0.707,-0.183,0.689,1.16,4.761,-3.357,2024-01-16 21:16:09.880,1
-0.71,-0.225,0.689,-1.16,2.441,1.038,2024-01-16 21:16:10.200,1
-0.71,-0.225,0.689,-1.16,2.441,1.038,2024-01-16 21:16:10.200,1
-0.694,-0.189,0.698,-4.089,3.113,4.211,2024-01-16 21:16:10.810,1
-0.694,-0.189,0.698,-4.089,3.113,4.211,2024-01-16 21:16:10.810,1
-0.686,-0.176,0.688,0.0,1.648,5.127,2024-01-16 21:16:10.201,1
-0.686,-0.176,0.688,0.0,1.648,5.127,2024-01-16 21:16:10.201,1
-0.704,-0.161,0.699,1.526,0.427,5.554,2024-01-16 21:16:10.291,0
-0.704,-0.161,0.699,1.526,0.427,5.554,2024-01-16 21:16:10.291,0
-0.7,-0.195,0.682,1.038,-0.427,5.127,2024-01-16 21:16:10.413,1
-0.7,-0.195,0.682,1.038,-0.427,5.127,2024-01-16 21:16:10.413,1
-0.724,-0.179,0.683,-1.282,-2.197,4.272,2024-01-16 21:16:10.501,1
-0.724,-0.179,0.683,-1.282,-2.197,4.272,2024-01-16 21:16:10.501,1
-0.691,-0.167,0.697,-2.563,0.671,1.953,2024-01-16 21:16:10.622,1
-0.691,-0.167,0.697,-2.563,0.671,1.953,2024-01-16 21:16:10.623,1
-0.699,-0.168,0.683,-3.784,2.563,0.793,2024-01-16 21:16:10.712,0
-0.699,-0.168,0.683,-3.784,2.563,0.793,2024-01-16 21:16:10.713,0
-0.698,-0.162,0.695,-2.747,1.404,-0.488,2024-01-16 21:16:10.801,0
-0.698,-0.162,0.695,-2.747,1.404,-0.488,2024-01-16 21:16:10.801,0
-0.709,-0.171,0.691,-1.587,-0.732,-0.305,2024-01-16 21:16:10.894,1
-0.709,-0.171,0.691,-1.587,-0.732,-0.305,2024-01-16 21:16:10.895,1
-0.707,-0.176,0.693,-2.747,-0.427,1.587,2024-01-16 21:16:11.420,1
-0.707,-0.176,0.693,-2.747,-0.427,1.587,2024-01-16 21:16:11.420,1
-0.678,-0.164,0.692,-0.977,-0.732,0.488,2024-01-16 21:16:11.101,1
-0.678,-0.164,0.692,-0.977,-0.732,0.488,2024-01-16 21:16:11.102,1
-0.707,-0.187,0.676,-0.061,-2.625,-1.038,2024-01-16 21:16:11.223,1
-0.707,-0.187,0.676,-0.061,-2.625,-1.038,2024-01-16 21:16:11.223,1
-0.72,-0.192,0.685,-0.854,-4.883,-2.93,2024-01-16 21:16:11.285,1
-0.72,-0.192,0.685,-0.854,-4.883,-2.93,2024-01-16 21:16:11.285,1
-0.698,-0.181,0.715,-2.136,0.549,-4.822,2024-01-16 21:16:11.400,1
-0.698,-0.181,0.715,-2.136,0.549,-4.822,2024-01-16 21:16:11.400,1
-0.711,-0.209,0.686,-1.892,1.099,-3.174,2024-01-16 21:16:11.491,1
-0.711,-0.209,0.686,-1.892,1.099,-3.174,2024-01-16 21:16:11.491,1
-0.694,-0.204,0.688,-2.014,1.587,-1.282,2024-01-16 21:16:11.611,1
-0.694,-0.204,0.688,-2.014,1.587,-1.282,2024-01-16 21:16:11.611,1
-0.703,-0.198,0.684,-1.16,1.282,1.343,2024-01-16 21:16:11.698,1
-0.703,-0.198,0.684,-1.16,1.282,1.343,2024-01-16 21:16:11.698,1
-0.697,-0.206,0.686,-0.488,1.099,1.709,2024-01-16 21:16:11.821,1
-0.697,-0.206,0.686,-0.488,1.099,1.709,2024-01-16 21:16:11.822,1
-0.709,-0.2,0.681,-0.549,0.671,2.563,2024-01-16 21:16:11.980,1
-0.709,-0.2,0.681,-0.549,0.671,2.563,2024-01-16 21:16:11.980,1
-0.708,-0.197,0.685,0.061,0.122,2.625,2024-01-16 21:16:12.390,1
-0.708,-0.197,0.685,0.061,0.122,2.625,2024-01-16 21:16:12.390,1
-0.707,-0.194,0.677,0.0,0.793,1.831,2024-01-16 21:16:12.930,1
-0.707,-0.194,0.677,0.0,0.793,1.831,2024-01-16 21:16:12.930,1
-0.706,-0.188,0.683,-0.244,-0.549,1.282,2024-01-16 21:16:12.212,1
-0.706,-0.188,0.683,-0.244,-0.549,1.282,2024-01-16 21:16:12.212,1
-0.708,-0.193,0.679,0.854,-0.427,0.061,2024-01-16 21:16:12.301,1
-0.708,-0.193,0.679,0.854,-0.427,0.061,2024-01-16 21:16:12.302,1
-0.702,-0.191,0.678,0.427,0.0,-0.549,2024-01-16 21:16:12.483,1
-0.702,-0.191,0.678,0.427,0.0,-0.549,2024-01-16 21:16:12.483,1
-0.712,-0.188,0.684,0.183,0.0,-1.038,2024-01-16 21:16:12.512,1
-0.712,-0.188,0.684,0.183,0.0,-1.038,2024-01-16 21:16:12.513,1
-0.696,-0.2,0.685,0.671,0.671,-0.488,2024-01-16 21:16:12.631,1
-0.696,-0.2,0.685,0.671,0.671,-0.488,2024-01-16 21:16:12.632,1
-0.706,-0.19,0.69,0.427,-0.916,0.0,2024-01-16 21:16:12.692,1
-0.706,-0.19,0.69,0.427,-0.916,0.0,2024-01-16 21:16:12.692,1
-0.698,-0.197,0.687,0.0,-0.183,0.793,2024-01-16 21:16:12.811,1
-0.698,-0.197,0.687,0.0,-0.183,0.793,2024-01-16 21:16:12.811,1
-0.693,-0.193,0.687,-0.366,-0.732,0.854,2024-01-16 21:16:12.962,1
-0.693,-0.193,0.687,-0.366,-0.732,0.854,2024-01-16 21:16:12.962,1
-0.708,-0.19,0.688,-0.488,-1.221,0.366,2024-01-16 21:16:13.200,1
-0.708,-0.19,0.688,-0.488,-1.221,0.366,2024-01-16 21:16:13.200,1
-0.705,-0.195,0.686,-0.366,-0.854,0.122,2024-01-16 21:16:13.112,1
-0.705,-0.195,0.686,-0.366,-0.854,0.122,2024-01-16 21:16:13.112,1
-0.703,-0.187,0.69,-0.549,-1.343,-0.427,2024-01-16 21:16:13.232,1
-0.703,-0.187,0.69,-0.549,-1.343,-0.427,2024-01-16 21:16:13.232,1
-0.702,-0.197,0.688,0.061,-0.916,-1.038,2024-01-16 21:16:13.322,1
-0.702,-0.197,0.688,0.061,-0.916,-1.038,2024-01-16 21:16:13.323,1
-0.708,-0.193,0.691,0.122,-0.854,-0.793,2024-01-16 21:16:13.484,1
-0.708,-0.193,0.691,0.122,-0.854,-0.793,2024-01-16 21:16:13.484,1
-0.718,-0.185,0.693,1.404,0.244,-2.014,2024-01-16 21:16:13.501,1
-0.718,-0.185,0.693,1.404,0.244,-2.014,2024-01-16 21:16:13.501,1
-0.696,-0.189,0.689,4.578,3.052,-1.77,2024-01-16 21:16:13.621,1
-0.696,-0.189,0.689,4.578,3.052,-1.77,2024-01-16 21:16:13.622,1
-0.705,-0.187,0.687,4.944,2.686,-0.793,2024-01-16 21:16:13.708,1
-0.705,-0.187,0.687,4.944,2.686,-0.793,2024-01-16 21:16:13.708,1
-0.706,-0.192,0.687,3.601,2.441,-0.183,2024-01-16 21:16:13.832,1
-0.706,-0.192,0.687,3.601,2.441,-0.183,2024-01-16 21:16:13.833,1
-0.698,-0.186,0.685,1.465,1.465,-0.977,2024-01-16 21:16:13.922,1
-0.698,-0.186,0.685,1.465,1.465,-0.977,2024-01-16 21:16:13.923,1
-0.694,-0.186,0.682,0.244,0.427,-1.831,2024-01-16 21:16:14.420,1
-0.694,-0.186,0.682,0.244,0.427,-1.831,2024-01-16 21:16:14.430,1
-0.704,-0.184,0.682,-0.977,-0.854,-0.854,2024-01-16 21:16:14.100,1
-0.704,-0.184,0.682,-0.977,-0.854,-0.854,2024-01-16 21:16:14.100,1
-0.701,-0.19,0.685,-0.793,-1.343,-0.366,2024-01-16 21:16:14.221,1
-0.701,-0.19,0.685,-0.793,-1.343,-0.366,2024-01-16 21:16:14.222,1
-0.705,-0.188,0.686,-0.977,-1.526,0.305,2024-01-16 21:16:14.311,1
-0.705,-0.188,0.686,-0.977,-1.526,0.305,2024-01-16 21:16:14.312,1
-0.708,-0.184,0.688,-0.488,-1.16,0.549,2024-01-16 21:16:14.431,1
-0.708,-0.184,0.688,-0.488,-1.16,0.549,2024-01-16 21:16:14.431,1
-0.693,-0.19,0.69,0.0,-0.183,0.854,2024-01-16 21:16:14.520,1
-0.693,-0.19,0.69,0.0,-0.183,0.854,2024-01-16 21:16:14.520,1
-0.712,-0.188,0.687,-0.916,-0.122,0.122,2024-01-16 21:16:14.642,1
-0.712,-0.188,0.687,-0.916,-0.122,0.122,2024-01-16 21:16:14.642,1
-0.703,-0.192,0.688,-1.16,0.427,0.122,2024-01-16 21:16:14.733,1
-0.703,-0.192,0.688,-1.16,0.427,0.122,2024-01-16 21:16:14.734,1
-0.69,-0.188,0.689,-0.977,0.0,-0.61,2024-01-16 21:16:14.850,1
-0.69,-0.188,0.689,-0.977,0.0,-0.61,2024-01-16 21:16:14.851,1
-0.702,-0.198,0.682,-0.977,0.0,-0.488,2024-01-16 21:16:14.910,1
-0.702,-0.198,0.682,-0.977,0.0,-0.488,2024-01-16 21:16:14.910,1
-0.7,-0.199,0.687,-1.526,-0.488,0.671,2024-01-16 21:16:15.290,1
-0.7,-0.199,0.687,-1.526,-0.488,0.671,2024-01-16 21:16:15.290,1
-0.7,-0.186,0.688,-0.977,-2.136,1.038,2024-01-16 21:16:15.153,1
-0.7,-0.186,0.688,-0.977,-2.136,1.038,2024-01-16 21:16:15.153,1
-0.7,-0.193,0.689,0.122,-1.77,0.977,2024-01-16 21:16:15.241,1
-0.7,-0.193,0.689,0.122,-1.77,0.977,2024-01-16 21:16:15.241,1
-0.695,-0.191,0.696,0.549,-1.221,0.854,2024-01-16 21:16:15.333,1
-0.695,-0.191,0.696,0.549,-1.221,0.854,2024-01-16 21:16:15.334,1
-0.702,-0.19,0.69,0.793,-0.61,0.0,2024-01-16 21:16:15.451,1
-0.702,-0.19,0.69,0.793,-0.61,0.0,2024-01-16 21:16:15.452,1
-0.698,-0.2,0.691,0.732,0.0,-0.671,2024-01-16 21:16:15.541,1
-0.698,-0.2,0.691,0.732,0.0,-0.671,2024-01-16 21:16:15.541,1
-0.698,-0.187,0.693,0.732,-0.549,-0.977,2024-01-16 21:16:15.632,1
-0.698,-0.187,0.693,0.732,-0.549,-0.977,2024-01-16 21:16:15.633,1
-0.694,-0.197,0.693,0.732,-0.244,-0.732,2024-01-16 21:16:15.721,1
-0.694,-0.197,0.693,0.732,-0.244,-0.732,2024-01-16 21:16:15.722,1
-0.705,-0.191,0.693,0.244,-0.244,-0.61,2024-01-16 21:16:15.842,1
-0.705,-0.191,0.693,0.244,-0.244,-0.61,2024-01-16 21:16:15.842,1
-0.693,-0.188,0.698,0.122,-0.244,-0.549,2024-01-16 21:16:15.933,1
-0.693,-0.188,0.698,0.122,-0.244,-0.549,2024-01-16 21:16:15.933,1
-0.702,-0.191,0.689,0.122,0.488,-0.122,2024-01-16 21:16:16.143,1
-0.702,-0.191,0.689,0.122,0.488,-0.122,2024-01-16 21:16:16.143,1
-0.7,-0.189,0.696,0.793,0.793,-0.488,2024-01-16 21:16:16.144,1
-0.7,-0.189,0.696,0.793,0.793,-0.488,2024-01-16 21:16:16.144,1
-0.696,-0.189,0.693,0.61,1.404,-0.549,2024-01-16 21:16:16.389,1
-0.696,-0.189,0.693,0.61,1.404,-0.549,2024-01-16 21:16:16.389,1
-0.692,-0.187,0.693,0.977,1.526,-0.793,2024-01-16 21:16:16.389,1
-0.692,-0.187,0.693,0.977,1.526,-0.793,2024-01-16 21:16:16.389,1
-0.688,-0.19,0.691,1.587,1.038,-1.16,2024-01-16 21:16:16.484,1
-0.688,-0.19,0.691,1.587,1.038,-1.16,2024-01-16 21:16:16.485,1
-0.689,-0.19,0.689,0.61,0.793,-0.488,2024-01-16 21:16:16.593,1
-0.689,-0.19,0.689,0.61,0.793,-0.488,2024-01-16 21:16:16.593,1
-0.69,-0.196,0.686,0.183,0.61,0.061,2024-01-16 21:16:16.681,1
-0.69,-0.196,0.686,0.183,0.61,0.061,2024-01-16 21:16:16.681,1
-0.696,-0.194,0.688,-0.427,-0.122,0.671,2024-01-16 21:16:16.788,1
-0.696,-0.194,0.688,-0.427,-0.122,0.671,2024-01-16 21:16:16.789,1
-0.691,-0.191,0.691,-0.61,-1.038,0.671,2024-01-16 21:16:16.891,1
-0.691,-0.191,0.691,-0.61,-1.038,0.671,2024-01-16 21:16:16.891,1
-0.696,-0.192,0.697,-0.427,-0.793,0.0,2024-01-16 21:16:16.922,1
-0.696,-0.192,0.697,-0.427,-0.793,0.0,2024-01-16 21:16:16.922,1
-0.703,-0.188,0.69,-1.038,-1.404,-0.488,2024-01-16 21:16:17.430,1
-0.703,-0.188,0.69,-1.038,-1.404,-0.488,2024-01-16 21:16:17.430,1
-0.697,-0.188,0.695,-0.305,-0.977,-0.305,2024-01-16 21:16:17.133,1
-0.697,-0.188,0.695,-0.305,-0.977,-0.305,2024-01-16 21:16:17.134,1
-0.69,-0.188,0.698,0.0,-0.549,0.122,2024-01-16 21:16:17.256,1
-0.69,-0.188,0.698,0.0,-0.549,0.122,2024-01-16 21:16:17.257,1
-0.699,-0.187,0.693,0.488,0.427,0.183,2024-01-16 21:16:17.386,1
-0.699,-0.187,0.693,0.488,0.427,0.183,2024-01-16 21:16:17.386,1
-0.696,-0.198,0.693,1.16,0.732,-0.061,2024-01-16 21:16:17.488,1
-0.696,-0.198,0.693,1.16,0.732,-0.061,2024-01-16 21:16:17.488,1
-0.698,-0.189,0.693,0.61,0.0,0.244,2024-01-16 21:16:17.558,1
-0.698,-0.189,0.693,0.61,0.0,0.244,2024-01-16 21:16:17.558,1
-0.698,-0.192,0.695,0.0,-0.488,0.366,2024-01-16 21:16:17.678,1
-0.698,-0.192,0.695,0.0,-0.488,0.366,2024-01-16 21:16:17.679,1
-0.696,-0.185,0.695,-0.366,-0.732,0.366,2024-01-16 21:16:17.781,1
-0.696,-0.185,0.695,-0.366,-0.732,0.366,2024-01-16 21:16:17.782,1
-0.685,-0.184,0.697,-0.305,-0.305,-0.244,2024-01-16 21:16:17.858,1
-0.685,-0.184,0.697,-0.305,-0.305,-0.244,2024-01-16 21:16:17.858,1
-0.701,-0.188,0.692,-0.305,0.183,-0.244,2024-01-16 21:16:17.943,1
-0.701,-0.188,0.692,-0.305,0.183,-0.244,2024-01-16 21:16:17.943,1
-0.693,-0.188,0.698,0.244,0.183,-0.671,2024-01-16 21:16:18.800,1
-0.693,-0.188,0.698,0.244,0.183,-0.671,2024-01-16 21:16:18.800,1
-0.686,-0.191,0.693,0.549,0.732,-0.916,2024-01-16 21:16:18.153,1
-0.686,-0.191,0.693,0.549,0.732,-0.916,2024-01-16 21:16:18.153,1
-0.699,-0.193,0.689,0.366,-0.183,0.061,2024-01-16 21:16:18.286,1
-0.699,-0.193,0.689,0.366,-0.183,0.061,2024-01-16 21:16:18.286,1
-0.694,-0.183,0.701,0.977,-1.038,0.122,2024-01-16 21:16:18.380,1
-0.694,-0.183,0.701,0.977,-1.038,0.122,2024-01-16 21:16:18.381,1
-0.697,-0.191,0.69,0.0,0.122,0.488,2024-01-16 21:16:18.481,1
-0.697,-0.191,0.69,0.0,0.122,0.488,2024-01-16 21:16:18.481,1
-0.697,-0.189,0.694,0.0,0.427,0.244,2024-01-16 21:16:18.544,1
-0.697,-0.189,0.694,0.0,0.427,0.244,2024-01-16 21:16:18.544,1
-0.699,-0.188,0.693,-0.244,0.366,0.0,2024-01-16 21:16:18.684,1
-0.699,-0.188,0.693,-0.244,0.366,0.0,2024-01-16 21:16:18.685,1
-0.72,-0.182,0.689,0.061,0.488,0.061,2024-01-16 21:16:18.749,1
-0.72,-0.182,0.689,0.061,0.488,0.061,2024-01-16 21:16:18.750,1
-0.702,-0.203,0.699,0.61,2.014,0.0,2024-01-16 21:16:18.884,1
-0.702,-0.203,0.699,0.61,2.014,0.0,2024-01-16 21:16:18.884,1
-0.691,-0.192,0.693,-0.916,3.174,-0.671,2024-01-16 21:16:18.983,1
-0.691,-0.192,0.693,-0.916,3.174,-0.671,2024-01-16 21:16:18.984,1
-0.7,-0.182,0.688,-0.549,2.869,-0.244,2024-01-16 21:16:19.142,1
-0.7,-0.182,0.688,-0.549,2.869,-0.244,2024-01-16 21:16:19.142,1
-0.705,-0.189,0.686,-0.122,1.465,-0.244,2024-01-16 21:16:19.143,1
-0.705,-0.189,0.686,-0.122,1.465,-0.244,2024-01-16 21:16:19.143,1
-0.7,-0.186,0.688,0.488,0.366,-0.122,2024-01-16 21:16:19.280,1
-0.7,-0.186,0.688,0.488,0.366,-0.122,2024-01-16 21:16:19.280,1
-0.709,-0.192,0.681,0.732,0.427,-0.305,2024-01-16 21:16:19.394,1
-0.709,-0.192,0.681,0.732,0.427,-0.305,2024-01-16 21:16:19.394,1
-0.706,-0.189,0.684,1.16,-0.305,-0.793,2024-01-16 21:16:19.471,1
-0.706,-0.189,0.684,1.16,-0.305,-0.793,2024-01-16 21:16:19.471,1
-0.705,-0.191,0.688,1.221,-0.305,-0.854,2024-01-16 21:16:19.598,1
-0.705,-0.191,0.688,1.221,-0.305,-0.854,2024-01-16 21:16:19.598,1
-0.704,-0.189,0.688,1.282,-0.122,-0.916,2024-01-16 21:16:19.682,1
-0.704,-0.189,0.688,1.282,-0.122,-0.916,2024-01-16 21:16:19.682,1
-0.701,-0.194,0.686,0.793,-0.366,-0.854,2024-01-16 21:16:19.740,1
-0.701,-0.194,0.686,0.793,-0.366,-0.854,2024-01-16 21:16:19.741,1
-0.706,-0.188,0.68,-0.366,-0.061,0.122,2024-01-16 21:16:19.882,1
-0.706,-0.188,0.68,-0.366,-0.061,0.122,2024-01-16 21:16:19.883,1
-0.7,-0.198,0.687,-0.549,-0.427,0.427,2024-01-16 21:16:19.954,1
-0.7,-0.198,0.687,-0.549,-0.427,0.427,2024-01-16 21:16:19.955,1
-0.709,-0.192,0.683,-1.282,-0.793,1.77,2024-01-16 21:16:20.770,1
-0.709,-0.192,0.683,-1.282,-0.793,1.77,2024-01-16 21:16:20.780,1
-0.711,-0.19,0.683,-1.648,0.0,2.075,2024-01-16 21:16:20.190,1
-0.711,-0.19,0.683,-1.648,0.0,2.075,2024-01-16 21:16:20.190,1
-0.703,-0.191,0.68,-2.258,1.465,1.709,2024-01-16 21:16:20.281,1
-0.703,-0.191,0.68,-2.258,1.465,1.709,2024-01-16 21:16:20.282,1
-0.719,-0.182,0.69,-1.282,0.854,1.343,2024-01-16 21:16:20.374,1
-0.719,-0.182,0.69,-1.282,0.854,1.343,2024-01-16 21:16:20.374,1
-0.74,-0.196,0.694,-1.221,2.625,0.732,2024-01-16 21:16:20.494,1
-0.74,-0.196,0.694,-1.221,2.625,0.732,2024-01-16 21:16:20.494,1
-0.808,-0.192,0.696,-2.258,6.592,0.671,2024-01-16 21:16:20.581,1
-0.808,-0.192,0.696,-2.258,6.592,0.671,2024-01-16 21:16:20.581,1
-0.865,-0.212,0.677,-3.479,16.418,-0.122,2024-01-16 21:16:20.679,1
-0.865,-0.212,0.677,-3.479,16.418,-0.122,2024-01-16 21:16:20.679,1
-0.75,-0.263,0.622,-11.169,34.912,4.333,2024-01-16 21:16:20.782,1
-0.75,-0.263,0.622,-11.169,34.912,4.333,2024-01-16 21:16:20.782,1
-0.259,-0.162,0.402,-23.315,59.753,6.958,2024-01-16 21:16:20.886,0
-0.259,-0.162,0.402,-23.315,59.753,6.958,2024-01-16 21:16:20.886,0
-0.702,0.013,0.315,-2.197,60.12,-8.362,2024-01-16 21:16:20.972,0
-0.702,0.013,0.315,-2.197,60.12,-8.362,2024-01-16 21:16:20.972,0
-1.157,-0.231,0.368,-8.301,21.545,-2.014,2024-01-16 21:16:21.960,0
-1.157,-0.231,0.368,-8.301,21.545,-2.014,2024-01-16 21:16:21.960,0
-1.478,-0.278,0.635,4.272,-10.01,-7.202,2024-01-16 21:16:21.152,0
-1.478,-0.278,0.635,4.272,-10.01,-7.202,2024-01-16 21:16:21.152,0
-1.498,-0.482,0.96,15.686,-44.739,-6.531,2024-01-16 21:16:21.274,1
-1.498,-0.482,0.96,15.686,-44.739,-6.531,2024-01-16 21:16:21.274,1
-1.07,-0.452,1.195,22.034,-80.566,1.343,2024-01-16 21:16:21.384,1
-1.07,-0.452,1.195,22.034,-80.566,1.343,2024-01-16 21:16:21.384,1
-0.109,-0.374,0.197,-13.184,-31.616,8.362,2024-01-16 21:16:21.484,1
-0.109,-0.374,0.197,-13.184,-31.616,8.362,2024-01-16 21:16:21.484,1
0.001,-0.028,-0.082,-80.139,124.939,2.625,2024-01-16 21:16:21.571,0
0.001,-0.028,-0.082,-80.139,124.939,2.625,2024-01-16 21:16:21.571,0
0.077,0.003,-0.009,154.358,-111.145,21.484,2024-01-16 21:16:21.693,0
0.077,0.003,-0.009,154.358,-111.145,21.484,2024-01-16 21:16:21.694,0
-0.777,-0.022,0.302,-279.053,195.19,-41.26,2024-01-16 21:16:21.812,0
-0.777,-0.022,0.302,-279.053,195.19,-41.26,2024-01-16 21:16:21.812,0
-0.905,-0.59,-0.024,71.96,52.307,-5.737,2024-01-16 21:16:21.902,1
-0.905,-0.59,-0.024,71.96,52.307,-5.737,2024-01-16 21:16:21.902,1
-1.77,-0.34,0.887,30.64,45.715,-12.756,2024-01-16 21:16:21.990,0
-1.77,-0.34,0.887,30.64,45.715,-12.756,2024-01-16 21:16:21.991,0
-1.177,-0.825,1.03,43.457,-58.777,-15.076,2024-01-16 21:16:22.820,1
-1.177,-0.825,1.03,43.457,-58.777,-15.076,2024-01-16 21:16:22.820,1
-0.261,-0.612,0.923,28.015,-51.697,2.991,2024-01-16 21:16:22.198,1
-0.261,-0.612,0.923,28.015,-51.697,2.991,2024-01-16 21:16:22.199,1
0.026,-0.078,0.04,-4.517,15.198,-3.967,2024-01-16 21:16:22.290,0
0.026,-0.078,0.04,-4.517,15.198,-3.967,2024-01-16 21:16:22.290,0
0.0,-0.012,-0.122,-51.025,400.085,-26.55,2024-01-16 21:16:22.385,0
0.0,-0.012,-0.122,-51.025,400.085,-26.55,2024-01-16 21:16:22.385,0
0.081,0.001,-0.006,143.127,-50.232,-20.569,2024-01-16 21:16:22.501,0
0.081,0.001,-0.006,143.127,-50.232,-20.569,2024-01-16 21:16:22.501,0
-3.688,-0.361,0.73,50.049,224.06,-59.57,2024-01-16 21:16:22.583,0
-3.688,-0.361,0.73,50.049,224.06,-59.57,2024-01-16 21:16:22.584,0
-0.598,-1.947,1.791,-55.969,-73.975,297.241,2024-01-16 21:16:22.682,1
-0.598,-1.947,1.791,-55.969,-73.975,297.241,2024-01-16 21:16:22.683,1
-1.516,-0.017,1.448,1.099,-39.185,0.305,2024-01-16 21:16:22.782,0
-1.516,-0.017,1.448,1.099,-39.185,0.305,2024-01-16 21:16:22.782,0
-1.222,-0.687,1.0,15.747,-27.405,-12.512,2024-01-16 21:16:22.896,1
-1.222,-0.687,1.0,15.747,-27.405,-12.512,2024-01-16 21:16:22.896,1
-0.066,-0.464,0.729,-7.996,-26.184,1.16,2024-01-16 21:16:22.980,1
-0.066,-0.464,0.729,-7.996,-26.184,1.16,2024-01-16 21:16:22.980,1
0.083,0.037,-0.049,7.935,14.832,-61.707,2024-01-16 21:16:23.101,0
0.083,0.037,-0.049,7.935,14.832,-61.707,2024-01-16 21:16:23.101,0
0.001,0.019,-0.675,-203.064,168.213,-43.091,2024-01-16 21:16:23.190,0
0.001,0.019,-0.675,-203.064,168.213,-43.091,2024-01-16 21:16:23.191,0
-0.783,0.002,-0.008,192.444,-101.868,-51.147,2024-01-16 21:16:23.311,0
-0.783,0.002,-0.008,192.444,-101.868,-51.147,2024-01-16 21:16:23.312,0
-3.801,-0.055,0.542,137.512,-83.618,-50.11,2024-01-16 21:16:23.383,0
-3.801,-0.055,0.542,137.512,-83.618,-50.11,2024-01-16 21:16:23.384,0
-0.708,-0.855,0.557,-128.845,-128.601,94.666,2024-01-16 21:16:23.521,1
-0.708,-0.855,0.557,-128.845,-128.601,94.666,2024-01-16 21:16:23.521,1
-0.435,-0.127,0.87,5.554,-18.188,-1.953,2024-01-16 21:16:23.580,1
-0.435,-0.127,0.87,5.554,-18.188,-1.953,2024-01-16 21:16:23.581,1
-0.239,-0.24,0.522,3.845,-1.709,-6.958,2024-01-16 21:16:23.700,1
-0.239,-0.24,0.522,3.845,-1.709,-6.958,2024-01-16 21:16:23.700,1
-0.754,-0.12,0.295,11.902,-19.653,-3.967,2024-01-16 21:16:23.790,0
-0.754,-0.12,0.295,11.902,-19.653,-3.967,2024-01-16 21:16:23.790,0
-0.982,-0.267,0.665,14.648,-16.602,4.028,2024-01-16 21:16:23.911,1
-0.982,-0.267,0.665,14.648,-16.602,4.028,2024-01-16 21:16:23.911,1
-0.33,-0.381,0.832,7.935,4.7,-8.24,2024-01-16 21:16:23.982,1
-0.33,-0.381,0.832,7.935,4.7,-8.24,2024-01-16 21:16:23.982,1
-0.881,-0.151,0.625,6.836,-4.578,-4.578,2024-01-16 21:16:24.910,0
-0.881,-0.151,0.625,6.836,-4.578,-4.578,2024-01-16 21:16:24.910,0
-0.552,-0.363,0.755,9.521,-4.883,-6.47,2024-01-16 21:16:24.183,1
-0.552,-0.363,0.755,9.521,-4.883,-6.47,2024-01-16 21:16:24.184,1
-0.724,-0.219,0.703,2.197,-4.333,-3.662,2024-01-16 21:16:24.300,1
-0.724,-0.219,0.703,2.197,-4.333,-3.662,2024-01-16 21:16:24.300,1
-0.651,-0.281,0.699,5.615,-5.066,-4.272,2024-01-16 21:16:24.395,1
-0.651,-0.281,0.699,5.615,-5.066,-4.272,2024-01-16 21:16:24.395,1
-0.674,-0.25,0.719,2.686,-2.075,-1.16,2024-01-16 21:16:24.512,1
-0.674,-0.25,0.719,2.686,-2.075,-1.16,2024-01-16 21:16:24.512,1
-0.682,-0.251,0.708,1.892,-2.563,1.892,2024-01-16 21:16:24.600,1
-0.682,-0.251,0.708,1.892,-2.563,1.892,2024-01-16 21:16:24.601,1
-0.664,-0.261,0.712,0.488,1.099,3.174,2024-01-16 21:16:24.722,1
-0.664,-0.261,0.712,0.488,1.099,3.174,2024-01-16 21:16:24.723,1
-0.672,-0.235,0.716,-2.686,1.465,5.615,2024-01-16 21:16:24.781,1
-0.672,-0.235,0.716,-2.686,1.465,5.615,2024-01-16 21:16:24.781,1
-0.646,-0.237,0.715,-4.333,4.456,4.456,2024-01-16 21:16:24.901,1
-0.646,-0.237,0.715,-4.333,4.456,4.456,2024-01-16 21:16:24.901,1
-0.651,-0.208,0.715,-3.967,4.395,3.784,2024-01-16 21:16:25.210,1
-0.651,-0.208,0.715,-3.967,4.395,3.784,2024-01-16 21:16:25.220,1
-0.649,-0.221,0.715,-2.686,1.221,2.197,2024-01-16 21:16:25.144,1
-0.649,-0.221,0.715,-2.686,1.221,2.197,2024-01-16 21:16:25.145,1
-0.65,-0.229,0.711,-1.404,-1.038,1.526,2024-01-16 21:16:25.201,1
-0.65,-0.229,0.711,-1.404,-1.038,1.526,2024-01-16 21:16:25.201,1
-0.666,-0.233,0.71,-0.671,-2.869,0.183,2024-01-16 21:16:25.319,1
-0.666,-0.233,0.71,-0.671,-2.869,0.183,2024-01-16 21:16:25.319,1
-0.648,-0.223,0.723,-0.183,-2.625,0.122,2024-01-16 21:16:25.410,1
-0.648,-0.223,0.723,-0.183,-2.625,0.122,2024-01-16 21:16:25.411,1
-0.659,-0.233,0.717,0.061,-1.221,0.0,2024-01-16 21:16:25.500,1
-0.659,-0.233,0.717,0.061,-1.221,0.0,2024-01-16 21:16:25.500,1
-0.666,-0.235,0.722,0.671,-1.465,-0.549,2024-01-16 21:16:25.591,1
-0.666,-0.235,0.722,0.671,-1.465,-0.549,2024-01-16 21:16:25.591,1
-0.653,-0.243,0.718,0.488,0.366,-0.366,2024-01-16 21:16:25.712,1
-0.653,-0.243,0.718,0.488,0.366,-0.366,2024-01-16 21:16:25.713,1
-0.661,-0.246,0.719,0.0,1.526,-1.282,2024-01-16 21:16:25.831,1
-0.661,-0.246,0.719,0.0,1.526,-1.282,2024-01-16 21:16:25.832,1
-0.648,-0.232,0.723,-0.244,0.854,-0.427,2024-01-16 21:16:25.921,1
-0.648,-0.232,0.723,-0.244,0.854,-0.427,2024-01-16 21:16:25.922,1
-0.65,-0.244,0.714,0.122,0.916,-0.244,2024-01-16 21:16:26.110,1
-0.65,-0.244,0.714,0.122,0.916,-0.244,2024-01-16 21:16:26.110,1
-0.654,-0.234,0.723,1.587,-0.427,-1.282,2024-01-16 21:16:26.132,1
-0.654,-0.234,0.723,1.587,-0.427,-1.282,2024-01-16 21:16:26.132,1
-0.663,-0.238,0.717,0.977,-0.61,-0.977,2024-01-16 21:16:26.343,1
-0.663,-0.238,0.717,0.977,-0.61,-0.977,2024-01-16 21:16:26.344,1
-0.657,-0.236,0.721,0.916,-0.366,-0.793,2024-01-16 21:16:26.344,1
-0.657,-0.236,0.721,0.916,-0.366,-0.793,2024-01-16 21:16:26.345,1
-0.646,-0.242,0.714,1.221,0.061,-1.16,2024-01-16 21:16:26.399,1
-0.646,-0.242,0.714,1.221,0.061,-1.16,2024-01-16 21:16:26.399,1
-0.662,-0.243,0.711,-0.732,-0.122,0.793,2024-01-16 21:16:26.521,1
-0.662,-0.243,0.711,-0.732,-0.122,0.793,2024-01-16 21:16:26.522,1
-0.659,-0.245,0.721,-1.343,-0.244,0.244,2024-01-16 21:16:26.609,1
-0.659,-0.245,0.721,-1.343,-0.244,0.244,2024-01-16 21:16:26.609,1
-0.666,-0.23,0.711,-0.549,0.183,0.305,2024-01-16 21:16:26.733,1
-0.666,-0.23,0.711,-0.549,0.183,0.305,2024-01-16 21:16:26.733,1
-0.657,-0.245,0.715,-0.244,0.427,0.61,2024-01-16 21:16:26.856,1
-0.657,-0.245,0.715,-0.244,0.427,0.61,2024-01-16 21:16:26.857,1
-0.656,-0.237,0.713,0.671,0.427,0.0,2024-01-16 21:16:26.944,1
-0.656,-0.237,0.713,0.671,0.427,0.0,2024-01-16 21:16:26.945,1
-0.652,-0.234,0.712,0.61,-0.122,0.0,2024-01-16 21:16:26.997,1
-0.652,-0.234,0.712,0.61,-0.122,0.0,2024-01-16 21:16:26.997,1
-0.658,-0.24,0.716,1.221,-0.427,-0.427,2024-01-16 21:16:27.157,1
-0.658,-0.24,0.716,1.221,-0.427,-0.427,2024-01-16 21:16:27.158,1
-0.654,-0.239,0.716,0.0,-0.793,-0.427,2024-01-16 21:16:27.212,1
-0.654,-0.239,0.716,0.0,-0.793,-0.427,2024-01-16 21:16:27.212,1
-0.66,-0.239,0.718,0.183,0.122,-0.61,2024-01-16 21:16:27.333,1
-0.66,-0.239,0.718,0.183,0.122,-0.61,2024-01-16 21:16:27.334,1
-0.656,-0.236,0.723,0.977,0.793,-0.549,2024-01-16 21:16:27.419,1
-0.656,-0.236,0.723,0.977,0.793,-0.549,2024-01-16 21:16:27.419,1
-0.657,-0.234,0.715,0.122,0.366,-0.061,2024-01-16 21:16:27.544,1
-0.657,-0.234,0.715,0.122,0.366,-0.061,2024-01-16 21:16:27.544,1
-0.65,-0.239,0.715,0.488,0.61,0.183,2024-01-16 21:16:27.632,1
-0.65,-0.239,0.715,0.488,0.61,0.183,2024-01-16 21:16:27.632,1
-0.658,-0.238,0.712,0.183,0.305,0.061,2024-01-16 21:16:27.722,1
-0.658,-0.238,0.712,0.183,0.305,0.061,2024-01-16 21:16:27.723,1
-0.662,-0.235,0.713,-0.183,0.488,-0.061,2024-01-16 21:16:27.813,1
-0.662,-0.235,0.713,-0.183,0.488,-0.061,2024-01-16 21:16:27.813,1
-0.661,-0.244,0.717,0.305,0.671,-0.549,2024-01-16 21:16:27.929,1
-0.661,-0.244,0.717,0.305,0.671,-0.549,2024-01-16 21:16:27.929,1
-0.659,-0.229,0.718,-0.244,-0.977,-0.488,2024-01-16 21:16:28.500,1
-0.659,-0.229,0.718,-0.244,-0.977,-0.488,2024-01-16 21:16:28.500,1
-0.658,-0.24,0.715,0.549,-0.488,-0.061,2024-01-16 21:16:28.141,1
-0.658,-0.24,0.715,0.549,-0.488,-0.061,2024-01-16 21:16:28.141,1
-0.652,-0.239,0.715,0.61,-0.244,0.305,2024-01-16 21:16:28.201,1
-0.652,-0.239,0.715,0.61,-0.244,0.305,2024-01-16 21:16:28.201,1
-0.644,-0.237,0.715,0.061,-0.061,0.61,2024-01-16 21:16:28.323,1
-0.644,-0.237,0.715,0.061,-0.061,0.61,2024-01-16 21:16:28.323,1
-0.654,-0.24,0.726,-0.122,-0.916,1.77,2024-01-16 21:16:28.532,1
-0.654,-0.24,0.726,-0.122,-0.916,1.77,2024-01-16 21:16:28.533,1
-0.656,-0.236,0.715,-1.526,-2.747,2.625,2024-01-16 21:16:28.592,1
-0.656,-0.236,0.715,-1.526,-2.747,2.625,2024-01-16 21:16:28.593,1
-0.651,-0.238,0.72,-1.892,-2.319,2.502,2024-01-16 21:16:28.623,1
-0.651,-0.238,0.72,-1.892,-2.319,2.502,2024-01-16 21:16:28.623,1
-0.651,-0.233,0.721,-2.563,-2.197,3.174,2024-01-16 21:16:28.742,1
-0.651,-0.233,0.721,-2.563,-2.197,3.174,2024-01-16 21:16:28.743,1
-0.657,-0.23,0.722,-2.197,-1.465,3.174,2024-01-16 21:16:28.829,1
-0.657,-0.23,0.722,-2.197,-1.465,3.174,2024-01-16 21:16:28.829,1
-0.65,-0.23,0.726,-1.038,-0.549,2.319,2024-01-16 21:16:28.981,1
-0.65,-0.23,0.726,-1.038,-0.549,2.319,2024-01-16 21:16:28.981,1
-0.655,-0.223,0.725,-0.977,-0.183,1.038,2024-01-16 21:16:29.110,1
-0.655,-0.223,0.725,-0.977,-0.183,1.038,2024-01-16 21:16:29.120,1
-0.653,-0.225,0.725,0.61,0.244,-0.061,2024-01-16 21:16:29.180,1
-0.653,-0.225,0.725,0.61,0.244,-0.061,2024-01-16 21:16:29.180,1
-0.654,-0.229,0.726,0.977,0.793,-1.099,2024-01-16 21:16:29.254,1
-0.654,-0.229,0.726,0.977,0.793,-1.099,2024-01-16 21:16:29.255,1
-0.651,-0.229,0.723,1.221,1.343,-2.319,2024-01-16 21:16:29.379,1
-0.651,-0.229,0.723,1.221,1.343,-2.319,2024-01-16 21:16:29.379,1
-0.656,-0.238,0.724,1.465,1.648,-2.441,2024-01-16 21:16:29.432,1
-0.656,-0.238,0.724,1.465,1.648,-2.441,2024-01-16 21:16:29.432,1
-0.658,-0.225,0.72,0.671,0.854,-1.953,2024-01-16 21:16:29.553,1
-0.658,-0.225,0.72,0.671,0.854,-1.953,2024-01-16 21:16:29.553,1
-0.65,-0.239,0.721,0.793,0.732,-1.343,2024-01-16 21:16:29.611,1
-0.65,-0.239,0.721,0.793,0.732,-1.343,2024-01-16 21:16:29.611,1
-0.649,-0.237,0.716,0.549,0.366,-1.099,2024-01-16 21:16:29.732,1
-0.649,-0.237,0.716,0.549,0.366,-1.099,2024-01-16 21:16:29.733,1
-0.66,-0.236,0.722,-0.122,0.305,-0.61,2024-01-16 21:16:29.822,1
-0.66,-0.236,0.722,-0.122,0.305,-0.61,2024-01-16 21:16:29.822,1
-0.655,-0.246,0.716,-0.244,0.549,-0.549,2024-01-16 21:16:29.973,1
-0.655,-0.246,0.716,-0.244,0.549,-0.549,2024-01-16 21:16:29.973,1
-0.647,-0.238,0.719,-0.488,-0.183,-0.671,2024-01-16 21:16:30.920,1
-0.647,-0.238,0.719,-0.488,-0.183,-0.671,2024-01-16 21:16:30.920,1
-0.656,-0.236,0.717,0.0,0.305,-0.732,2024-01-16 21:16:30.184,1
-0.656,-0.236,0.717,0.0,0.305,-0.732,2024-01-16 21:16:30.184,1
-0.654,-0.243,0.72,-0.061,-0.061,-0.061,2024-01-16 21:16:30.242,1
-0.654,-0.243,0.72,-0.061,-0.061,-0.061,2024-01-16 21:16:30.243,1
-0.66,-0.237,0.715,0.122,0.0,0.183,2024-01-16 21:16:30.381,1
-0.66,-0.237,0.715,0.122,0.0,0.183,2024-01-16 21:16:30.381,1
-0.657,-0.246,0.716,0.0,0.366,0.244,2024-01-16 21:16:30.422,1
-0.657,-0.246,0.716,0.0,0.366,0.244,2024-01-16 21:16:30.423,1
-0.652,-0.235,0.72,0.244,-0.244,-0.427,2024-01-16 21:16:30.541,1
-0.652,-0.235,0.72,0.244,-0.244,-0.427,2024-01-16 21:16:30.541,1
-0.654,-0.24,0.719,0.793,-0.244,-1.038,2024-01-16 21:16:30.629,1
-0.654,-0.24,0.719,0.793,-0.244,-1.038,2024-01-16 21:16:30.629,1
-0.653,-0.24,0.725,0.977,-0.61,-0.793,2024-01-16 21:16:30.752,1
-0.653,-0.24,0.725,0.977,-0.61,-0.793,2024-01-16 21:16:30.753,1
-0.66,-0.235,0.722,0.305,-0.244,-1.038,2024-01-16 21:16:30.843,1
-0.66,-0.235,0.722,0.305,-0.244,-1.038,2024-01-16 21:16:30.844,1
-0.653,-0.248,0.717,0.0,0.793,-0.916,2024-01-16 21:16:30.983,1
-0.653,-0.248,0.717,0.0,0.793,-0.916,2024-01-16 21:16:30.983,1
-0.65,-0.236,0.724,0.244,0.305,-0.977,2024-01-16 21:16:31.230,1
-0.65,-0.236,0.724,0.244,0.305,-0.977,2024-01-16 21:16:31.230,1
-0.664,-0.242,0.719,0.244,0.671,-0.488,2024-01-16 21:16:31.142,1
-0.664,-0.242,0.719,0.244,0.671,-0.488,2024-01-16 21:16:31.142,1
-0.665,-0.244,0.719,-0.061,0.793,0.0,2024-01-16 21:16:31.231,1
-0.665,-0.244,0.719,-0.061,0.793,0.0,2024-01-16 21:16:31.232,1
-0.65,-0.24,0.715,0.488,1.465,-1.16,2024-01-16 21:16:31.352,1
-0.65,-0.24,0.715,0.488,1.465,-1.16,2024-01-16 21:16:31.352,1
-0.657,-0.247,0.709,0.061,1.465,-0.732,2024-01-16 21:16:31.441,1
-0.657,-0.247,0.709,0.061,1.465,-0.732,2024-01-16 21:16:31.441,1
-0.652,-0.244,0.714,0.427,0.854,-1.099,2024-01-16 21:16:31.582,1
-0.652,-0.244,0.714,0.427,0.854,-1.099,2024-01-16 21:16:31.583,1
-0.657,-0.245,0.709,0.427,0.427,-0.854,2024-01-16 21:16:31.653,1
-0.657,-0.245,0.709,0.427,0.427,-0.854,2024-01-16 21:16:31.653,1
-0.66,-0.243,0.712,0.488,-0.061,-0.488,2024-01-16 21:16:31.801,1
-0.66,-0.243,0.712,0.488,-0.061,-0.488,2024-01-16 21:16:31.801,1
-0.635,-0.24,0.714,1.282,-0.122,-1.16,2024-01-16 21:16:31.831,1
-0.635,-0.24,0.714,1.282,-0.122,-1.16,2024-01-16 21:16:31.831,1
-0.655,-0.243,0.714,1.343,-0.854,-1.038,2024-01-16 21:16:31.951,1
-0.655,-0.243,0.714,1.343,-0.854,-1.038,2024-01-16 21:16:31.952,1
-0.649,-0.246,0.717,1.709,-0.916,-1.404,2024-01-16 21:16:32.740,1
-0.649,-0.246,0.717,1.709,-0.916,-1.404,2024-01-16 21:16:32.750,1
-0.65,-0.25,0.718,1.16,-0.732,-1.343,2024-01-16 21:16:32.191,1
-0.65,-0.25,0.718,1.16,-0.732,-1.343,2024-01-16 21:16:32.191,1
-0.651,-0.25,0.722,-0.122,-0.549,-0.671,2024-01-16 21:16:32.286,1
-0.651,-0.25,0.722,-0.122,-0.549,-0.671,2024-01-16 21:16:32.286,1
-0.633,-0.247,0.723,-0.549,-0.244,-0.122,2024-01-16 21:16:32.401,1
-0.633,-0.247,0.723,-0.549,-0.244,-0.122,2024-01-16 21:16:32.401,1
-0.649,-0.244,0.717,-0.916,-0.549,0.793,2024-01-16 21:16:32.492,1
-0.649,-0.244,0.717,-0.916,-0.549,0.793,2024-01-16 21:16:32.492,1
-0.655,-0.244,0.724,-0.793,-0.305,1.282,2024-01-16 21:16:32.583,1
-0.655,-0.244,0.724,-0.793,-0.305,1.282,2024-01-16 21:16:32.583,1
-0.65,-0.244,0.716,-0.366,0.122,1.038,2024-01-16 21:16:32.641,1
-0.65,-0.244,0.716,-0.366,0.122,1.038,2024-01-16 21:16:32.641,1
-0.652,-0.241,0.718,-0.122,0.305,0.183,2024-01-16 21:16:32.791,1
-0.652,-0.241,0.718,-0.122,0.305,0.183,2024-01-16 21:16:32.791,1
-0.645,-0.238,0.722,0.61,0.732,-0.366,2024-01-16 21:16:33.300,1
-0.645,-0.238,0.722,0.61,0.732,-0.366,2024-01-16 21:16:33.300,1
-0.653,-0.236,0.715,0.122,0.0,-0.305,2024-01-16 21:16:33.101,1
-0.653,-0.236,0.715,0.122,0.0,-0.305,2024-01-16 21:16:33.101,1
-0.656,-0.248,0.72,0.671,0.244,-0.427,2024-01-16 21:16:33.101,1
-0.656,-0.248,0.72,0.671,0.244,-0.427,2024-01-16 21:16:33.102,1
-0.652,-0.242,0.719,-0.122,0.366,0.0,2024-01-16 21:16:33.181,1
-0.652,-0.242,0.719,-0.122,0.366,0.0,2024-01-16 21:16:33.181,1
-0.664,-0.245,0.715,-0.488,0.305,0.122,2024-01-16 21:16:33.278,1
-0.664,-0.245,0.715,-0.488,0.305,0.122,2024-01-16 21:16:33.279,1
-0.652,-0.249,0.722,0.366,0.977,0.061,2024-01-16 21:16:33.385,1
-0.652,-0.249,0.722,0.366,0.977,0.061,2024-01-16 21:16:33.386,1
-0.649,-0.241,0.722,-0.305,0.732,0.0,2024-01-16 21:16:33.481,1
-0.649,-0.241,0.722,-0.305,0.732,0.0,2024-01-16 21:16:33.481,1
-0.652,-0.249,0.713,0.0,0.793,-0.244,2024-01-16 21:16:33.601,1
-0.652,-0.249,0.713,0.0,0.793,-0.244,2024-01-16 21:16:33.601,1
-0.655,-0.249,0.714,-0.183,0.244,0.122,2024-01-16 21:16:33.685,1
-0.655,-0.249,0.714,-0.183,0.244,0.122,2024-01-16 21:16:33.686,1
-0.663,-0.248,0.714,-0.061,0.305,-0.366,2024-01-16 21:16:33.780,1
-0.663,-0.248,0.714,-0.061,0.305,-0.366,2024-01-16 21:16:33.780,1
-0.657,-0.253,0.709,-0.61,0.488,0.366,2024-01-16 21:16:33.884,1
-0.657,-0.253,0.709,-0.61,0.488,0.366,2024-01-16 21:16:33.884,1
-0.656,-0.245,0.714,-0.122,-0.244,0.244,2024-01-16 21:16:33.991,1
-0.656,-0.245,0.714,-0.122,-0.244,0.244,2024-01-16 21:16:33.991,1
-0.661,-0.246,0.712,0.183,-0.244,0.366,2024-01-16 21:16:34.570,1
-0.661,-0.246,0.712,0.183,-0.244,0.366,2024-01-16 21:16:34.580,1
-0.66,-0.247,0.715,-0.061,-0.305,0.488,2024-01-16 21:16:34.186,1
-0.66,-0.247,0.715,-0.061,-0.305,0.488,2024-01-16 21:16:34.187,1
-0.652,-0.242,0.715,0.061,-0.122,0.122,2024-01-16 21:16:34.287,1
-0.652,-0.242,0.715,0.061,-0.122,0.122,2024-01-16 21:16:34.287,1
-0.66,-0.25,0.711,-0.183,0.0,0.305,2024-01-16 21:16:34.383,1
-0.66,-0.25,0.711,-0.183,0.0,0.305,2024-01-16 21:16:34.383,1
-0.656,-0.245,0.715,0.122,-0.244,0.122,2024-01-16 21:16:34.472,1
-0.656,-0.245,0.715,0.122,-0.244,0.122,2024-01-16 21:16:34.473,1
-0.656,-0.246,0.716,0.305,0.0,-0.244,2024-01-16 21:16:34.588,1
-0.656,-0.246,0.716,0.305,0.0,-0.244,2024-01-16 21:16:34.588,1
-0.657,-0.247,0.718,0.122,0.061,-0.305,2024-01-16 21:16:34.652,1
-0.657,-0.247,0.718,0.122,0.061,-0.305,2024-01-16 21:16:34.652,1
-0.641,-0.241,0.72,0.366,-0.122,-0.366,2024-01-16 21:16:34.774,1
-0.641,-0.241,0.72,0.366,-0.122,-0.366,2024-01-16 21:16:34.774,1
-0.659,-0.243,0.713,-0.061,0.183,0.183,2024-01-16 21:16:34.888,1
-0.659,-0.243,0.713,-0.061,0.183,0.183,2024-01-16 21:16:34.888,1
-0.656,-0.245,0.719,0.061,0.183,0.427,2024-01-16 21:16:34.984,1
-0.656,-0.245,0.719,0.061,0.183,0.427,2024-01-16 21:16:34.984,1
-0.656,-0.243,0.712,-0.061,0.183,0.488,2024-01-16 21:16:35.740,1
-0.656,-0.243,0.712,-0.061,0.183,0.488,2024-01-16 21:16:35.740,1
-0.657,-0.242,0.717,-0.61,0.916,0.366,2024-01-16 21:16:35.191,1
-0.657,-0.242,0.717,-0.61,0.916,0.366,2024-01-16 21:16:35.191,1
-0.651,-0.24,0.723,-0.732,1.587,0.0,2024-01-16 21:16:35.252,1
-0.651,-0.24,0.723,-0.732,1.587,0.0,2024-01-16 21:16:35.253,1
-0.689,-0.249,0.719,-1.77,1.465,1.16,2024-01-16 21:16:35.376,1
-0.689,-0.249,0.719,-1.77,1.465,1.16,2024-01-16 21:16:35.376,1
-0.766,-0.261,0.722,-1.892,4.395,2.319,2024-01-16 21:16:35.485,1
-0.766,-0.261,0.722,-1.892,4.395,2.319,2024-01-16 21:16:35.485,1
-0.799,-0.271,0.709,-4.7,15.747,3.235,2024-01-16 21:16:35.584,1
-0.799,-0.271,0.709,-4.7,15.747,3.235,2024-01-16 21:16:35.584,1
-0.577,-0.27,0.643,-11.108,35.034,4.028,2024-01-16 21:16:35.674,1
-0.577,-0.27,0.643,-11.108,35.034,4.028,2024-01-16 21:16:35.674,1
-0.356,-0.229,0.337,-29.541,65.613,7.446,2024-01-16 21:16:35.793,0
-0.356,-0.229,0.337,-29.541,65.613,7.446,2024-01-16 21:16:35.793,0
-0.787,0.029,0.364,-12.512,54.81,-0.366,2024-01-16 21:16:35.882,0
-0.787,0.029,0.364,-12.512,54.81,-0.366,2024-01-16 21:16:35.882,0
-1.358,-0.318,0.565,0.854,20.386,-12.268,2024-01-16 21:16:36.000,0
-1.358,-0.318,0.565,0.854,20.386,-12.268,2024-01-16 21:16:36.100,0
-1.36,-0.488,0.804,6.287,-15.991,-3.357,2024-01-16 21:16:36.910,1
-1.36,-0.488,0.804,6.287,-15.991,-3.357,2024-01-16 21:16:36.910,1
-1.521,-0.521,1.061,26.428,-65.735,-1.282,2024-01-16 21:16:36.181,1
-1.521,-0.521,1.061,26.428,-65.735,-1.282,2024-01-16 21:16:36.181,1
-0.352,-0.781,0.903,5.31,-68.42,11.169,2024-01-16 21:16:36.277,1
-0.352,-0.781,0.903,5.31,-68.42,11.169,2024-01-16 21:16:36.277,1
0.088,-0.06,0.031,-24.658,-9.583,12.268,2024-01-16 21:16:36.421,0
0.088,-0.06,0.031,-24.658,-9.583,12.268,2024-01-16 21:16:36.422,0
0.002,0.014,-0.046,-131.287,478.943,-24.658,2024-01-16 21:16:36.483,0
0.002,0.014,-0.046,-131.287,478.943,-24.658,2024-01-16 21:16:36.484,0
0.047,-0.0,-0.005,112.305,-1.221,-63.538,2024-01-16 21:16:36.601,0
0.047,-0.0,-0.005,112.305,-1.221,-63.538,2024-01-16 21:16:36.601,0
-1.394,-0.011,0.06,-107.239,175.171,-136.597,2024-01-16 21:16:36.672,0
-1.394,-0.011,0.06,-107.239,175.171,-136.597,2024-01-16 21:16:36.672,0
-0.076,-1.388,1.608,365.54,-29.907,117.432,2024-01-16 21:16:36.840,1
-0.076,-1.388,1.608,365.54,-29.907,117.432,2024-01-16 21:16:36.841,1
-1.767,-0.017,1.201,20.996,65.125,-25.452,2024-01-16 21:16:36.885,0
-1.767,-0.017,1.201,20.996,65.125,-25.452,2024-01-16 21:16:36.885,0
-1.216,-0.739,0.949,27.649,-49.927,-8.728,2024-01-16 21:16:36.991,1
-1.216,-0.739,0.949,27.649,-49.927,-8.728,2024-01-16 21:16:36.992,1
-0.304,-0.596,1.001,19.897,-57.983,3.357,2024-01-16 21:16:37.820,1
-0.304,-0.596,1.001,19.897,-57.983,3.357,2024-01-16 21:16:37.820,1
0.055,-0.063,0.062,-8.972,20.386,-4.883,2024-01-16 21:16:37.231,0
0.055,-0.063,0.062,-8.972,20.386,-4.883,2024-01-16 21:16:37.231,0
0.0,-0.042,-0.84,-242.065,337.708,-50.232,2024-01-16 21:16:37.321,0
0.0,-0.042,-0.84,-242.065,337.708,-50.232,2024-01-16 21:16:37.321,0
-0.15,-0.003,-0.007,179.077,-0.122,-63.965,2024-01-16 21:16:37.411,0
-0.15,-0.003,-0.007,179.077,-0.122,-63.965,2024-01-16 21:16:37.411,0
-3.836,-0.382,0.689,-211.67,99.976,37.17,2024-01-16 21:16:37.477,0
-3.836,-0.382,0.689,-211.67,99.976,37.17,2024-01-16 21:16:37.477,0
-0.482,-1.473,2.177,-1.709,-99.854,140.747,2024-01-16 21:16:37.591,1
-0.482,-1.473,2.177,-1.709,-99.854,140.747,2024-01-16 21:16:37.591,1
-1.44,-0.346,1.15,19.348,-10.376,-4.211,2024-01-16 21:16:37.682,1
-1.44,-0.346,1.15,19.348,-10.376,-4.211,2024-01-16 21:16:37.682,1
-1.078,-0.589,1.087,13.794,-37.415,-0.916,2024-01-16 21:16:37.801,1
-1.078,-0.589,1.087,13.794,-37.415,-0.916,2024-01-16 21:16:37.801,1
-0.518,-0.409,1.024,18.494,-73.425,3.784,2024-01-16 21:16:37.892,1
-0.518,-0.409,1.024,18.494,-73.425,3.784,2024-01-16 21:16:37.892,1
-0.091,-0.148,-0.028,-12.756,-20.142,1.465,2024-01-16 21:16:38.110,0
-0.091,-0.148,-0.028,-12.756,-20.142,1.465,2024-01-16 21:16:38.110,0
-0.014,0.007,-0.035,-45.959,180.115,-5.432,2024-01-16 21:16:38.830,0
-0.014,0.007,-0.035,-45.959,180.115,-5.432,2024-01-16 21:16:38.830,0
0.012,-0.011,-0.019,126.587,-229.675,-3.906,2024-01-16 21:16:38.191,0
0.012,-0.011,-0.019,126.587,-229.675,-3.906,2024-01-16 21:16:38.191,0
-4.284,0.073,0.197,32.227,69.153,-36.438,2024-01-16 21:16:38.282,0
-4.284,0.073,0.197,32.227,69.153,-36.438,2024-01-16 21:16:38.282,0
-0.036,-1.958,0.915,-62.439,-86.304,-232.3,2024-01-16 21:16:38.401,1
-0.036,-1.958,0.915,-62.439,-86.304,-232.3,2024-01-16 21:16:38.401,1
-1.066,0.277,1.373,-6.653,0.671,18.188,2024-01-16 21:16:38.491,0
-1.066,0.277,1.373,-6.653,0.671,18.188,2024-01-16 21:16:38.491,0
-0.215,-0.601,0.545,11.23,-1.77,5.188,2024-01-16 21:16:38.611,1
-0.215,-0.601,0.545,11.23,-1.77,5.188,2024-01-16 21:16:38.611,1
-0.467,-0.096,0.258,12.756,-22.827,15.686,2024-01-16 21:16:38.701,0
-0.467,-0.096,0.258,12.756,-22.827,15.686,2024-01-16 21:16:38.701,0
-1.329,-0.138,0.333,20.081,-32.471,13.062,2024-01-16 21:16:38.822,0
-1.329,-0.138,0.333,20.081,-32.471,13.062,2024-01-16 21:16:38.823,0
-0.434,-0.317,1.082,29.785,-32.41,15.076,2024-01-16 21:16:38.883,1
-0.434,-0.317,1.082,29.785,-32.41,15.076,2024-01-16 21:16:38.883,1
-0.96,-0.251,0.53,-5.127,-4.333,0.305,2024-01-16 21:16:39.100,0
-0.96,-0.251,0.53,-5.127,-4.333,0.305,2024-01-16 21:16:39.100,0
-0.613,-0.176,0.817,10.315,-7.263,-0.61,2024-01-16 21:16:39.122,1
-0.613,-0.176,0.817,10.315,-7.263,-0.61,2024-01-16 21:16:39.123,1
-0.597,-0.262,0.667,-1.831,-0.305,-1.099,2024-01-16 21:16:39.211,1
-0.597,-0.262,0.667,-1.831,-0.305,-1.099,2024-01-16 21:16:39.211,1
-0.761,-0.117,0.652,-0.732,-1.709,-2.563,2024-01-16 21:16:39.298,0
-0.761,-0.117,0.652,-0.732,-1.709,-2.563,2024-01-16 21:16:39.298,0
-0.686,-0.276,0.74,0.671,-0.488,-6.714,2024-01-16 21:16:39.422,1
-0.686,-0.276,0.74,0.671,-0.488,-6.714,2024-01-16 21:16:39.422,1
-0.674,-0.174,0.705,-0.244,-0.305,-0.977,2024-01-16 21:16:39.483,1
-0.674,-0.174,0.705,-0.244,-0.305,-0.977,2024-01-16 21:16:39.484,1
-0.683,-0.233,0.694,-1.465,0.61,0.244,2024-01-16 21:16:39.598,1
-0.683,-0.233,0.694,-1.465,0.61,0.244,2024-01-16 21:16:39.598,1
-0.658,-0.2,0.707,-1.831,0.183,2.319,2024-01-16 21:16:39.691,1
-0.658,-0.2,0.707,-1.831,0.183,2.319,2024-01-16 21:16:39.691,1
-0.652,-0.197,0.716,-1.038,-1.465,1.77,2024-01-16 21:16:39.808,1
-0.652,-0.197,0.716,-1.038,-1.465,1.77,2024-01-16 21:16:39.808,1
-0.65,-0.21,0.729,-0.793,-2.563,1.465,2024-01-16 21:16:39.900,1
-0.65,-0.21,0.729,-0.793,-2.563,1.465,2024-01-16 21:16:39.900,1
-0.677,-0.217,0.727,-0.977,-3.723,1.099,2024-01-16 21:16:40.210,1
-0.677,-0.217,0.727,-0.977,-3.723,1.099,2024-01-16 21:16:40.220,1
-0.679,-0.21,0.729,-1.526,-1.587,0.427,2024-01-16 21:16:40.112,1
-0.679,-0.21,0.729,-1.526,-1.587,0.427,2024-01-16 21:16:40.112,1
-0.66,-0.221,0.736,-0.244,2.136,0.488,2024-01-16 21:16:40.232,1
-0.66,-0.221,0.736,-0.244,2.136,0.488,2024-01-16 21:16:40.232,1
-0.663,-0.212,0.722,-1.099,2.93,2.38,2024-01-16 21:16:40.291,1
-0.663,-0.212,0.722,-1.099,2.93,2.38,2024-01-16 21:16:40.291,1
-0.646,-0.205,0.73,0.0,3.967,2.502,2024-01-16 21:16:40.413,1
-0.646,-0.205,0.73,0.0,3.967,2.502,2024-01-16 21:16:40.413,1
-0.639,-0.193,0.712,1.953,2.441,1.282,2024-01-16 21:16:40.501,1
-0.639,-0.193,0.712,1.953,2.441,1.282,2024-01-16 21:16:40.501,1
-0.644,-0.189,0.727,3.418,-1.953,1.099,2024-01-16 21:16:40.622,1
-0.644,-0.189,0.727,3.418,-1.953,1.099,2024-01-16 21:16:40.622,1
-0.726,-0.2,0.711,1.221,-4.272,2.869,2024-01-16 21:16:40.712,1
-0.726,-0.2,0.711,1.221,-4.272,2.869,2024-01-16 21:16:40.712,1
-0.627,-0.213,0.727,-0.305,-2.014,0.061,2024-01-16 21:16:40.833,1
-0.627,-0.213,0.727,-0.305,-2.014,0.061,2024-01-16 21:16:40.833,1
-0.684,-0.182,0.718,-0.305,-2.075,-1.221,2024-01-16 21:16:40.889,1
-0.684,-0.182,0.718,-0.305,-2.075,-1.221,2024-01-16 21:16:40.889,1
-0.674,-0.201,0.729,-0.244,-1.038,-1.465,2024-01-16 21:16:41.110,1
-0.674,-0.201,0.729,-0.244,-1.038,-1.465,2024-01-16 21:16:41.110,1
-0.668,-0.191,0.729,0.488,1.16,-2.075,2024-01-16 21:16:41.100,1
-0.668,-0.191,0.729,0.488,1.16,-2.075,2024-01-16 21:16:41.100,1
-0.664,-0.214,0.713,0.366,2.869,-2.258,2024-01-16 21:16:41.222,1
-0.664,-0.214,0.713,0.366,2.869,-2.258,2024-01-16 21:16:41.222,1
-0.687,-0.208,0.71,-0.427,3.113,-2.075,2024-01-16 21:16:41.311,1
-0.687,-0.208,0.71,-0.427,3.113,-2.075,2024-01-16 21:16:41.311,1
-0.679,-0.219,0.708,0.0,3.296,-2.136,2024-01-16 21:16:41.431,1
-0.679,-0.219,0.708,0.0,3.296,-2.136,2024-01-16 21:16:41.431,1
-0.684,-0.215,0.702,-0.244,4.211,-3.113,2024-01-16 21:16:41.521,1
-0.684,-0.215,0.702,-0.244,4.211,-3.113,2024-01-16 21:16:41.521,1
-0.672,-0.206,0.703,-0.122,3.906,-3.723,2024-01-16 21:16:41.642,1
-0.672,-0.206,0.703,-0.122,3.906,-3.723,2024-01-16 21:16:41.643,1
-0.673,-0.223,0.697,-0.122,3.479,-3.296,2024-01-16 21:16:41.700,1
-0.673,-0.223,0.697,-0.122,3.479,-3.296,2024-01-16 21:16:41.700,1
-0.665,-0.211,0.697,0.671,2.319,-3.113,2024-01-16 21:16:41.822,1
-0.665,-0.211,0.697,0.671,2.319,-3.113,2024-01-16 21:16:41.822,1
-0.661,-0.209,0.703,1.404,0.488,-2.197,2024-01-16 21:16:41.912,1
-0.661,-0.209,0.703,1.404,0.488,-2.197,2024-01-16 21:16:41.912,1
-0.684,-0.227,0.701,1.77,-2.014,-1.038,2024-01-16 21:16:42.320,1
-0.684,-0.227,0.701,1.77,-2.014,-1.038,2024-01-16 21:16:42.320,1
-0.66,-0.225,0.707,0.244,-2.441,-0.61,2024-01-16 21:16:42.121,1
-0.66,-0.225,0.707,0.244,-2.441,-0.61,2024-01-16 21:16:42.121,1
-0.677,-0.236,0.699,-2.075,-1.953,1.099,2024-01-16 21:16:42.241,1
-0.677,-0.236,0.699,-2.075,-1.953,1.099,2024-01-16 21:16:42.242,1
-0.664,-0.219,0.711,-1.221,-2.258,-0.183,2024-01-16 21:16:42.298,1
-0.664,-0.219,0.711,-1.221,-2.258,-0.183,2024-01-16 21:16:42.298,1
-0.674,-0.218,0.71,0.244,-0.977,-1.099,2024-01-16 21:16:42.423,1
-0.674,-0.218,0.71,0.244,-0.977,-1.099,2024-01-16 21:16:42.423,1
-0.644,-0.237,0.706,0.854,-0.183,-1.831,2024-01-16 21:16:42.511,1
-0.644,-0.237,0.706,0.854,-0.183,-1.831,2024-01-16 21:16:42.511,1
-0.619,-0.216,0.715,0.671,-5.249,2.93,2024-01-16 21:16:42.631,1
-0.619,-0.216,0.715,0.671,-5.249,2.93,2024-01-16 21:16:42.631,1
-0.699,-0.224,0.722,1.16,-7.874,5.737,2024-01-16 21:16:42.721,1
-0.699,-0.224,0.722,1.16,-7.874,5.737,2024-01-16 21:16:42.721,1
-0.65,-0.229,0.735,0.671,-6.287,4.15,2024-01-16 21:16:42.843,1
-0.65,-0.229,0.735,0.671,-6.287,4.15,2024-01-16 21:16:42.844,1
-0.647,-0.206,0.734,-0.244,-3.967,2.991,2024-01-16 21:16:42.931,1
-0.647,-0.206,0.734,-0.244,-3.967,2.991,2024-01-16 21:16:42.931,1
-0.67,-0.207,0.743,-0.916,-2.136,0.732,2024-01-16 21:16:43.520,1
-0.67,-0.207,0.743,-0.916,-2.136,0.732,2024-01-16 21:16:43.530,1
-0.629,-0.205,0.739,-1.465,0.427,-0.122,2024-01-16 21:16:43.109,1
-0.629,-0.205,0.739,-1.465,0.427,-0.122,2024-01-16 21:16:43.109,1
-0.647,-0.205,0.737,-0.61,1.221,-1.892,2024-01-16 21:16:43.233,1
-0.647,-0.205,0.737,-0.61,1.221,-1.892,2024-01-16 21:16:43.233,1
-0.649,-0.203,0.736,0.854,1.16,-3.052,2024-01-16 21:16:43.321,1
-0.649,-0.203,0.736,0.854,1.16,-3.052,2024-01-16 21:16:43.321,1
-0.655,-0.213,0.736,1.526,1.221,-2.014,2024-01-16 21:16:43.443,1
-0.655,-0.213,0.736,1.526,1.221,-2.014,2024-01-16 21:16:43.443,1
-0.667,-0.212,0.734,1.953,2.991,-3.113,2024-01-16 21:16:43.531,1
-0.667,-0.212,0.734,1.953,2.991,-3.113,2024-01-16 21:16:43.531,1
-0.641,-0.221,0.727,2.258,3.906,-3.296,2024-01-16 21:16:43.680,1
-0.641,-0.221,0.727,2.258,3.906,-3.296,2024-01-16 21:16:43.680,1
-0.667,-0.214,0.73,1.709,2.808,-2.747,2024-01-16 21:16:43.711,1
-0.667,-0.214,0.73,1.709,2.808,-2.747,2024-01-16 21:16:43.711,1
-0.671,-0.222,0.717,2.38,3.784,-4.089,2024-01-16 21:16:43.832,1
-0.671,-0.222,0.717,2.38,3.784,-4.089,2024-01-16 21:16:43.832,1
-0.658,-0.216,0.711,2.441,4.761,-5.188,2024-01-16 21:16:43.919,1
-0.658,-0.216,0.711,2.441,4.761,-5.188,2024-01-16 21:16:43.920,1
-0.666,-0.227,0.708,2.808,4.028,-6.287,2024-01-16 21:16:44.390,1
-0.666,-0.227,0.708,2.808,4.028,-6.287,2024-01-16 21:16:44.390,1
-0.648,-0.225,0.716,2.747,3.479,-5.737,2024-01-16 21:16:44.130,1
-0.648,-0.225,0.716,2.747,3.479,-5.737,2024-01-16 21:16:44.130,1
-0.659,-0.222,0.702,1.953,2.197,-3.662,2024-01-16 21:16:44.252,1
-0.659,-0.222,0.702,1.953,2.197,-3.662,2024-01-16 21:16:44.253,1
-0.653,-0.234,0.713,1.953,1.282,-1.16,2024-01-16 21:16:44.341,1
-0.653,-0.234,0.713,1.953,1.282,-1.16,2024-01-16 21:16:44.342,1
-0.664,-0.227,0.713,1.221,-0.61,1.465,2024-01-16 21:16:44.475,1
-0.664,-0.227,0.713,1.221,-0.61,1.465,2024-01-16 21:16:44.475,1
-0.661,-0.226,0.712,2.93,-1.221,2.93,2024-01-16 21:16:44.520,1
-0.661,-0.226,0.712,2.93,-1.221,2.93,2024-01-16 21:16:44.520,1
-0.669,-0.221,0.714,2.319,-1.953,4.639,2024-01-16 21:16:44.642,1
-0.669,-0.221,0.714,2.319,-1.953,4.639,2024-01-16 21:16:44.642,1
-0.679,-0.206,0.716,0.488,-2.502,4.578,2024-01-16 21:16:44.728,1
-0.679,-0.206,0.716,0.488,-2.502,4.578,2024-01-16 21:16:44.729,1
-0.66,-0.2,0.723,-0.122,-1.099,2.747,2024-01-16 21:16:44.859,1
-0.66,-0.2,0.723,-0.122,-1.099,2.747,2024-01-16 21:16:44.859,1
-0.661,-0.2,0.715,-0.549,-1.221,0.244,2024-01-16 21:16:44.941,1
-0.661,-0.2,0.715,-0.549,-1.221,0.244,2024-01-16 21:16:44.942,1
-0.669,-0.203,0.721,-1.282,-1.587,-0.549,2024-01-16 21:16:45.830,1
-0.669,-0.203,0.721,-1.282,-1.587,-0.549,2024-01-16 21:16:45.840,1
-0.664,-0.208,0.723,-1.648,-1.282,-0.549,2024-01-16 21:16:45.152,1
-0.664,-0.208,0.723,-1.648,-1.282,-0.549,2024-01-16 21:16:45.152,1
-0.656,-0.204,0.725,-2.808,-1.953,0.122,2024-01-16 21:16:45.240,1
-0.656,-0.204,0.725,-2.808,-1.953,0.122,2024-01-16 21:16:45.241,1
-0.648,-0.204,0.734,-0.61,-1.77,-0.61,2024-01-16 21:16:45.332,1
-0.648,-0.204,0.734,-0.61,-1.77,-0.61,2024-01-16 21:16:45.332,1
-0.662,-0.199,0.72,0.366,-1.404,-1.221,2024-01-16 21:16:45.449,1
-0.662,-0.199,0.72,0.366,-1.404,-1.221,2024-01-16 21:16:45.449,1
-0.646,-0.207,0.731,2.197,-2.686,-1.16,2024-01-16 21:16:45.541,1
-0.646,-0.207,0.731,2.197,-2.686,-1.16,2024-01-16 21:16:45.542,1
-0.646,-0.221,0.726,2.136,-1.953,-1.221,2024-01-16 21:16:45.680,1
-0.646,-0.221,0.726,2.136,-1.953,-1.221,2024-01-16 21:16:45.680,1
-0.645,-0.219,0.736,1.892,-2.319,-1.282,2024-01-16 21:16:45.750,1
-0.645,-0.219,0.736,1.892,-2.319,-1.282,2024-01-16 21:16:45.750,1
-0.644,-0.222,0.743,0.0,-1.465,-0.122,2024-01-16 21:16:45.886,1
-0.644,-0.222,0.743,0.0,-1.465,-0.122,2024-01-16 21:16:45.886,1
-0.642,-0.22,0.743,-1.953,-0.549,0.977,2024-01-16 21:16:45.932,1
-0.642,-0.22,0.743,-1.953,-0.549,0.977,2024-01-16 21:16:45.932,1
-0.636,-0.213,0.74,-2.625,0.244,1.526,2024-01-16 21:16:46.107,1
-0.636,-0.213,0.74,-2.625,0.244,1.526,2024-01-16 21:16:46.107,1
-0.641,-0.207,0.739,-2.808,-0.122,1.953,2024-01-16 21:16:46.141,1
-0.641,-0.207,0.739,-2.808,-0.122,1.953,2024-01-16 21:16:46.141,1
-0.639,-0.213,0.736,-1.831,0.488,1.709,2024-01-16 21:16:46.260,1
-0.639,-0.213,0.736,-1.831,0.488,1.709,2024-01-16 21:16:46.260,1
-0.643,-0.212,0.732,-1.221,0.244,1.343,2024-01-16 21:16:46.351,1
-0.643,-0.212,0.732,-1.221,0.244,1.343,2024-01-16 21:16:46.351,1
-0.654,-0.211,0.736,-0.671,0.0,0.977,2024-01-16 21:16:46.483,1
-0.654,-0.211,0.736,-0.671,0.0,0.977,2024-01-16 21:16:46.483,1
-0.644,-0.215,0.738,-0.122,0.366,0.244,2024-01-16 21:16:46.532,1
-0.644,-0.215,0.738,-0.122,0.366,0.244,2024-01-16 21:16:46.532,1
-0.641,-0.211,0.734,-0.183,0.0,0.0,2024-01-16 21:16:46.652,1
-0.641,-0.211,0.734,-0.183,0.0,0.0,2024-01-16 21:16:46.652,1
-0.648,-0.215,0.736,0.122,0.305,0.061,2024-01-16 21:16:46.742,1
-0.648,-0.215,0.736,0.122,0.305,0.061,2024-01-16 21:16:46.743,1
-0.636,-0.222,0.737,-0.427,0.244,0.427,2024-01-16 21:16:46.885,1
-0.636,-0.222,0.737,-0.427,0.244,0.427,2024-01-16 21:16:46.885,1
-0.636,-0.221,0.734,-2.258,0.549,2.319,2024-01-16 21:16:46.952,1
-0.636,-0.221,0.734,-2.258,0.549,2.319,2024-01-16 21:16:46.953,1
-0.648,-0.229,0.729,-3.723,-1.465,5.066,2024-01-16 21:16:47.840,1
-0.648,-0.229,0.729,-3.723,-1.465,5.066,2024-01-16 21:16:47.840,1
-0.65,-0.217,0.736,-4.883,-2.93,6.592,2024-01-16 21:16:47.189,1
-0.65,-0.217,0.736,-4.883,-2.93,6.592,2024-01-16 21:16:47.189,1
-0.648,-0.213,0.736,-5.005,-2.136,6.653,2024-01-16 21:16:47.283,1
-0.648,-0.213,0.736,-5.005,-2.136,6.653,2024-01-16 21:16:47.283,1
-0.649,-0.209,0.734,-4.578,-1.404,5.31,2024-01-16 21:16:47.342,1
-0.649,-0.209,0.734,-4.578,-1.404,5.31,2024-01-16 21:16:47.343,1
-0.646,-0.204,0.739,-3.845,-0.977,4.211,2024-01-16 21:16:47.485,1
-0.646,-0.204,0.739,-3.845,-0.977,4.211,2024-01-16 21:16:47.485,1
-0.656,-0.212,0.73,-3.418,-0.122,3.845,2024-01-16 21:16:47.552,1
-0.656,-0.212,0.73,-3.418,-0.122,3.845,2024-01-16 21:16:47.553,1
-0.655,-0.205,0.735,-1.831,0.244,2.258,2024-01-16 21:16:47.685,1
-0.655,-0.205,0.735,-1.831,0.244,2.258,2024-01-16 21:16:47.686,1
-0.653,-0.21,0.726,-1.099,0.732,0.793,2024-01-16 21:16:47.789,1
-0.653,-0.21,0.726,-1.099,0.732,0.793,2024-01-16 21:16:47.790,1
-0.667,-0.208,0.726,-0.366,1.099,-0.122,2024-01-16 21:16:47.882,1
-0.667,-0.208,0.726,-0.366,1.099,-0.122,2024-01-16 21:16:47.883,1
-0.651,-0.21,0.727,0.977,3.052,-2.686,2024-01-16 21:16:47.940,1
-0.651,-0.21,0.727,0.977,3.052,-2.686,2024-01-16 21:16:47.940,1
-0.659,-0.216,0.72,0.183,2.441,-2.441,2024-01-16 21:16:48.810,1
-0.659,-0.216,0.72,0.183,2.441,-2.441,2024-01-16 21:16:48.820,1
-0.657,-0.217,0.719,1.282,2.075,-2.075,2024-01-16 21:16:48.152,1
-0.657,-0.217,0.719,1.282,2.075,-2.075,2024-01-16 21:16:48.153,1
-0.657,-0.221,0.718,0.916,1.709,-1.953,2024-01-16 21:16:48.283,1
-0.657,-0.221,0.718,0.916,1.709,-1.953,2024-01-16 21:16:48.283,1
-0.66,-0.221,0.718,0.732,0.671,-1.587,2024-01-16 21:16:48.391,1
-0.66,-0.221,0.718,0.732,0.671,-1.587,2024-01-16 21:16:48.391,1
-0.658,-0.227,0.72,1.16,0.549,-1.526,2024-01-16 21:16:48.480,1
-0.658,-0.227,0.72,1.16,0.549,-1.526,2024-01-16 21:16:48.480,1
-0.658,-0.221,0.723,0.488,-0.549,-1.831,2024-01-16 21:16:48.588,1
-0.658,-0.221,0.723,0.488,-0.549,-1.831,2024-01-16 21:16:48.589,1
-0.65,-0.227,0.721,0.61,-0.671,-1.77,2024-01-16 21:16:48.719,1
-0.65,-0.227,0.721,0.61,-0.671,-1.77,2024-01-16 21:16:48.719,1
-0.652,-0.227,0.721,0.793,-1.038,-1.221,2024-01-16 21:16:48.751,1
-0.652,-0.227,0.721,0.793,-1.038,-1.221,2024-01-16 21:16:48.752,1
-0.651,-0.217,0.724,0.916,-0.977,-0.793,2024-01-16 21:16:48.882,1
-0.651,-0.217,0.724,0.916,-0.977,-0.793,2024-01-16 21:16:48.883,1
-0.656,-0.231,0.723,0.854,-0.916,-0.366,2024-01-16 21:16:48.986,1
-0.656,-0.231,0.723,0.854,-0.916,-0.366,2024-01-16 21:16:48.987,1
-0.646,-0.226,0.726,0.671,-1.587,0.0,2024-01-16 21:16:49.890,1
-0.646,-0.226,0.726,0.671,-1.587,0.0,2024-01-16 21:16:49.890,1
-0.652,-0.228,0.728,0.366,-1.099,0.061,2024-01-16 21:16:49.190,1
-0.652,-0.228,0.728,0.366,-1.099,0.061,2024-01-16 21:16:49.190,1
-0.656,-0.224,0.732,0.122,-0.793,0.183,2024-01-16 21:16:49.290,1
-0.656,-0.224,0.732,0.122,-0.793,0.183,2024-01-16 21:16:49.290,1
-0.625,-0.217,0.733,0.122,-0.244,0.061,2024-01-16 21:16:49.351,1
-0.625,-0.217,0.733,0.122,-0.244,0.061,2024-01-16 21:16:49.352,1
-0.646,-0.22,0.728,-0.122,0.366,0.0,2024-01-16 21:16:49.485,1
-0.646,-0.22,0.728,-0.122,0.366,0.0,2024-01-16 21:16:49.485,1
-0.64,-0.219,0.731,0.427,0.122,-0.183,2024-01-16 21:16:49.588,1
-0.64,-0.219,0.731,0.427,0.122,-0.183,2024-01-16 21:16:49.588,1
-0.647,-0.22,0.729,0.244,0.0,-0.244,2024-01-16 21:16:49.681,1
-0.647,-0.22,0.729,0.244,0.0,-0.244,2024-01-16 21:16:49.681,1
-0.652,-0.223,0.732,-0.183,0.061,0.183,2024-01-16 21:16:49.787,1
-0.652,-0.223,0.732,-0.183,0.061,0.183,2024-01-16 21:16:49.787,1
-0.638,-0.221,0.732,0.0,0.549,0.0,2024-01-16 21:16:49.890,1
-0.638,-0.221,0.732,0.0,0.549,0.0,2024-01-16 21:16:49.890,1
-0.651,-0.219,0.73,-0.732,0.671,0.305,2024-01-16 21:16:49.988,1
-0.651,-0.219,0.73,-0.732,0.671,0.305,2024-01-16 21:16:49.988,1
-0.648,-0.22,0.73,-0.244,0.732,0.427,2024-01-16 21:16:50.101,1
-0.648,-0.22,0.73,-0.244,0.732,0.427,2024-01-16 21:16:50.101,1
-0.659,-0.219,0.726,-0.244,0.977,0.122,2024-01-16 21:16:50.185,1
-0.659,-0.219,0.726,-0.244,0.977,0.122,2024-01-16 21:16:50.186,1
-0.658,-0.216,0.727,-0.122,0.549,0.305,2024-01-16 21:16:50.286,1
-0.658,-0.216,0.727,-0.122,0.549,0.305,2024-01-16 21:16:50.286,1
-0.66,-0.224,0.724,0.854,1.526,-0.549,2024-01-16 21:16:50.391,1
-0.66,-0.224,0.724,0.854,1.526,-0.549,2024-01-16 21:16:50.392,1
-0.662,-0.221,0.72,0.0,0.854,-0.488,2024-01-16 21:16:50.491,1
-0.662,-0.221,0.72,0.0,0.854,-0.488,2024-01-16 21:16:50.491,1
-0.663,-0.225,0.721,0.244,1.587,-0.732,2024-01-16 21:16:50.584,1
-0.663,-0.225,0.721,0.244,1.587,-0.732,2024-01-16 21:16:50.584,1
-0.655,-0.221,0.718,-0.366,1.709,-0.305,2024-01-16 21:16:50.701,1
-0.655,-0.221,0.718,-0.366,1.709,-0.305,2024-01-16 21:16:50.701,1
-0.673,-0.22,0.714,-0.061,1.404,-0.366,2024-01-16 21:16:50.791,1
-0.673,-0.22,0.714,-0.061,1.404,-0.366,2024-01-16 21:16:50.791,1
-0.661,-0.239,0.717,0.244,1.892,0.122,2024-01-16 21:16:50.882,1
-0.661,-0.239,0.717,0.244,1.892,0.122,2024-01-16 21:16:50.882,1
-0.666,-0.226,0.718,-1.282,0.549,1.587,2024-01-16 21:16:50.987,1
-0.666,-0.226,0.718,-1.282,0.549,1.587,2024-01-16 21:16:50.987,1
-0.67,-0.227,0.714,-1.465,0.183,1.892,2024-01-16 21:16:51.910,1
-0.67,-0.227,0.714,-1.465,0.183,1.892,2024-01-16 21:16:51.910,1
-0.697,-0.223,0.714,-1.526,0.793,1.648,2024-01-16 21:16:51.213,1
-0.697,-0.223,0.714,-1.526,0.793,1.648,2024-01-16 21:16:51.214,1
-0.757,-0.225,0.718,-1.343,4.578,3.418,2024-01-16 21:16:51.359,1
-0.757,-0.225,0.718,-1.343,4.578,3.418,2024-01-16 21:16:51.360,1
-0.796,-0.203,0.725,4.7,13.367,9.46,2024-01-16 21:16:51.391,1
-0.796,-0.203,0.725,4.7,13.367,9.46,2024-01-16 21:16:51.391,1
-0.734,-0.229,0.664,5.859,29.785,5.371,2024-01-16 21:16:51.512,1
-0.734,-0.229,0.664,5.859,29.785,5.371,2024-01-16 21:16:51.512,1
-0.219,-0.314,0.441,-9.216,53.955,0.916,2024-01-16 21:16:51.589,1
-0.219,-0.314,0.441,-9.216,53.955,0.916,2024-01-16 21:16:51.589,1
-0.719,0.094,0.288,-17.761,61.646,-7.324,2024-01-16 21:16:51.812,0
-0.719,0.094,0.288,-17.761,61.646,-7.324,2024-01-16 21:16:51.812,0
-1.261,-0.208,0.561,1.099,6.531,-36.194,2024-01-16 21:16:51.813,0
-1.261,-0.208,0.561,1.099,6.531,-36.194,2024-01-16 21:16:51.813,0
-1.65,-0.453,0.997,9.705,-26.733,-10.925,2024-01-16 21:16:51.901,1
-1.65,-0.453,0.997,9.705,-26.733,-10.925,2024-01-16 21:16:51.901,1
-1.315,-0.577,1.409,28.015,-68.848,2.991,2024-01-16 21:16:51.990,1
-1.315,-0.577,1.409,28.015,-68.848,2.991,2024-01-16 21:16:51.991,1
-0.137,-0.47,0.605,-13.855,-29.846,8.972,2024-01-16 21:16:52.112,1
-0.137,-0.47,0.605,-13.855,-29.846,8.972,2024-01-16 21:16:52.113,1
-0.007,-0.048,-0.066,-23.926,124.573,15.442,2024-01-16 21:16:52.188,0
-0.007,-0.048,-0.066,-23.926,124.573,15.442,2024-01-16 21:16:52.188,0
0.371,-0.005,-0.101,191.589,-20.569,-42.969,2024-01-16 21:16:52.288,0
0.371,-0.005,-0.101,191.589,-20.569,-42.969,2024-01-16 21:16:52.289,0
-0.528,0.305,0.524,-239.258,-212.341,9.827,2024-01-16 21:16:52.417,0
-0.528,0.305,0.524,-239.258,-212.341,9.827,2024-01-16 21:16:52.417,0
-1.422,-0.562,1.223,-14.343,-187.378,-61.157,2024-01-16 21:16:52.501,1
-1.422,-0.562,1.223,-14.343,-187.378,-61.157,2024-01-16 21:16:52.501,1
-1.63,-0.655,0.706,-32.654,29.236,0.732,2024-01-16 21:16:52.591,1
-1.63,-0.655,0.706,-32.654,29.236,0.732,2024-01-16 21:16:52.591,1
-1.172,-0.418,1.197,39.063,-68.787,-2.197,2024-01-16 21:16:52.712,1
-1.172,-0.418,1.197,39.063,-68.787,-2.197,2024-01-16 21:16:52.712,1
-0.277,-0.476,1.084,15.747,-45.166,2.502,2024-01-16 21:16:52.800,1
-0.277,-0.476,1.084,15.747,-45.166,2.502,2024-01-16 21:16:52.801,1
0.071,-0.077,0.017,-7.935,5.432,-4.333,2024-01-16 21:16:52.919,0
0.071,-0.077,0.017,-7.935,5.432,-4.333,2024-01-16 21:16:52.920,0
0.001,0.031,-0.762,-206.116,539.673,-47.852,2024-01-16 21:16:52.987,0
0.001,0.031,-0.762,-206.116,539.673,-47.852,2024-01-16 21:16:52.987,0
0.041,-0.008,-0.013,281.738,-27.344,-63.477,2024-01-16 21:16:53.990,0
0.041,-0.008,-0.013,281.738,-27.344,-63.477,2024-01-16 21:16:53.990,0
-4.096,-0.139,0.265,162.842,256.592,-30.823,2024-01-16 21:16:53.189,0
-4.096,-0.139,0.265,162.842,256.592,-30.823,2024-01-16 21:16:53.189,0
-0.153,-1.059,2.405,-164.368,-177.917,733.276,2024-01-16 21:16:53.312,1
-0.153,-1.059,2.405,-164.368,-177.917,733.276,2024-01-16 21:16:53.312,1
-1.846,0.013,0.862,-47.546,32.41,11.292,2024-01-16 21:16:53.400,0
-1.846,0.013,0.862,-47.546,32.41,11.292,2024-01-16 21:16:53.401,0
-1.477,-0.574,1.09,30.212,-43.518,-0.122,2024-01-16 21:16:53.521,1
-1.477,-0.574,1.09,30.212,-43.518,-0.122,2024-01-16 21:16:53.522,1
-0.432,-0.519,1.058,16.907,-51.697,7.446,2024-01-16 21:16:53.588,1
-0.432,-0.519,1.058,16.907,-51.697,7.446,2024-01-16 21:16:53.588,1
-0.068,-0.101,0.056,-26.489,-7.996,11.047,2024-01-16 21:16:53.699,0
-0.068,-0.101,0.056,-26.489,-7.996,11.047,2024-01-16 21:16:53.699,0
-0.006,0.007,-0.576,-143.982,448.853,-10.559,2024-01-16 21:16:53.791,0
-0.006,0.007,-0.576,-143.982,448.853,-10.559,2024-01-16 21:16:53.791,0
0.009,0.0,-0.012,253.052,-167.236,-66.467,2024-01-16 21:16:53.910,0
0.009,0.0,-0.012,253.052,-167.236,-66.467,2024-01-16 21:16:53.910,0
-1.082,-0.008,-0.012,12.207,230.042,-157.104,2024-01-16 21:16:54.000,0
-1.082,-0.008,-0.012,12.207,230.042,-157.104,2024-01-16 21:16:54.000,0
-0.479,-1.734,3.08,342.529,124.39,-27.71,2024-01-16 21:16:54.119,1
-0.479,-1.734,3.08,342.529,124.39,-27.71,2024-01-16 21:16:54.120,1
-1.189,-0.213,1.233,-23.132,21.362,-20.081,2024-01-16 21:16:54.212,1
-1.189,-0.213,1.233,-23.132,21.362,-20.081,2024-01-16 21:16:54.212,1
-0.289,-0.551,0.729,18.127,-20.691,-17.395,2024-01-16 21:16:54.331,1
-0.289,-0.551,0.729,18.127,-20.691,-17.395,2024-01-16 21:16:54.331,1
-0.36,-0.152,0.406,14.709,-15.137,-9.277,2024-01-16 21:16:54.388,0
-0.36,-0.152,0.406,14.709,-15.137,-9.277,2024-01-16 21:16:54.388,0
-0.838,-0.201,0.323,14.832,-23.376,1.16,2024-01-16 21:16:54.510,0
-0.838,-0.201,0.323,14.832,-23.376,1.16,2024-01-16 21:16:54.510,0
-0.563,-0.33,0.901,22.217,-24.841,-1.221,2024-01-16 21:16:54.599,1
-0.563,-0.33,0.901,22.217,-24.841,-1.221,2024-01-16 21:16:54.600,1
-0.63,-0.17,0.677,-7.019,5.31,12.756,2024-01-16 21:16:54.722,1
-0.63,-0.17,0.677,-7.019,5.31,12.756,2024-01-16 21:16:54.723,1
-0.59,-0.28,0.791,15.808,-6.897,-10.925,2024-01-16 21:16:54.842,1
-0.59,-0.28,0.791,15.808,-6.897,-10.925,2024-01-16 21:16:54.843,1
-0.635,-0.168,0.804,3.479,-4.028,5.127,2024-01-16 21:16:54.931,1
-0.635,-0.168,0.804,3.479,-4.028,5.127,2024-01-16 21:16:54.931,1
-0.59,-0.275,0.756,0.0,-0.366,2.258,2024-01-16 21:16:54.988,1
-0.59,-0.275,0.756,0.0,-0.366,2.258,2024-01-16 21:16:54.989,1
-0.636,-0.188,0.741,-1.648,-0.549,4.456,2024-01-16 21:16:55.111,1
-0.636,-0.188,0.741,-1.648,-0.549,4.456,2024-01-16 21:16:55.111,1
-0.602,-0.198,0.769,-1.587,-0.793,4.578,2024-01-16 21:16:55.199,1
-0.602,-0.198,0.769,-1.587,-0.793,4.578,2024-01-16 21:16:55.200,1
-0.657,-0.183,0.763,-0.916,-1.648,4.333,2024-01-16 21:16:55.321,1
-0.657,-0.183,0.763,-0.916,-1.648,4.333,2024-01-16 21:16:55.321,1
-0.635,-0.209,0.748,-1.465,1.221,4.089,2024-01-16 21:16:55.410,1
-0.635,-0.209,0.748,-1.465,1.221,4.089,2024-01-16 21:16:55.410,1
-0.654,-0.228,0.758,-2.38,0.549,2.686,2024-01-16 21:16:55.587,1
-0.654,-0.228,0.758,-2.38,0.549,2.686,2024-01-16 21:16:55.587,1
-0.629,-0.202,0.744,-4.028,2.869,2.197,2024-01-16 21:16:55.623,1
-0.629,-0.202,0.744,-4.028,2.869,2.197,2024-01-16 21:16:55.623,1
-0.675,-0.217,0.727,-3.357,2.869,0.977,2024-01-16 21:16:55.739,1
-0.675,-0.217,0.727,-3.357,2.869,0.977,2024-01-16 21:16:55.740,1
-0.66,-0.207,0.735,-2.563,4.028,-0.732,2024-01-16 21:16:55.798,1
-0.66,-0.207,0.735,-2.563,4.028,-0.732,2024-01-16 21:16:55.799,1
-0.661,-0.208,0.713,-0.488,4.395,-1.892,2024-01-16 21:16:55.921,1
-0.661,-0.208,0.713,-0.488,4.395,-1.892,2024-01-16 21:16:55.921,1
-0.669,-0.216,0.706,1.038,3.54,-1.77,2024-01-16 21:16:56.100,1
-0.669,-0.216,0.706,1.038,3.54,-1.77,2024-01-16 21:16:56.100,1
-0.648,-0.21,0.716,1.343,3.296,0.488,2024-01-16 21:16:56.128,1
-0.648,-0.21,0.716,1.343,3.296,0.488,2024-01-16 21:16:56.129,1
-0.672,-0.219,0.707,0.916,2.075,1.526,2024-01-16 21:16:56.221,1
-0.672,-0.219,0.707,0.916,2.075,1.526,2024-01-16 21:16:56.222,1
-0.66,-0.21,0.715,0.427,1.465,0.549,2024-01-16 21:16:56.399,1
-0.66,-0.21,0.715,0.427,1.465,0.549,2024-01-16 21:16:56.399,1
-0.657,-0.216,0.71,-0.244,0.916,0.0,2024-01-16 21:16:56.401,1
-0.657,-0.216,0.71,-0.244,0.916,0.0,2024-01-16 21:16:56.401,1
-0.671,-0.217,0.71,-0.916,0.0,0.0,2024-01-16 21:16:56.584,1
-0.671,-0.217,0.71,-0.916,0.0,0.0,2024-01-16 21:16:56.584,1
-0.661,-0.203,0.719,-0.671,-1.099,0.183,2024-01-16 21:16:56.612,1
-0.661,-0.203,0.719,-0.671,-1.099,0.183,2024-01-16 21:16:56.612,1
-0.673,-0.19,0.716,1.16,-0.305,0.549,2024-01-16 21:16:56.731,1
-0.673,-0.19,0.716,1.16,-0.305,0.549,2024-01-16 21:16:56.732,1
-0.656,-0.203,0.717,2.502,0.305,-0.793,2024-01-16 21:16:56.822,1
-0.656,-0.203,0.717,2.502,0.305,-0.793,2024-01-16 21:16:56.822,1
-0.669,-0.206,0.716,2.747,0.0,-2.625,2024-01-16 21:16:56.939,1
-0.669,-0.206,0.716,2.747,0.0,-2.625,2024-01-16 21:16:56.940,1
-0.665,-0.215,0.72,1.953,0.0,-3.052,2024-01-16 21:16:57.310,1
-0.665,-0.215,0.72,1.953,0.0,-3.052,2024-01-16 21:16:57.320,1
-0.657,-0.208,0.724,2.319,0.793,-3.601,2024-01-16 21:16:57.151,1
-0.657,-0.208,0.724,2.319,0.793,-3.601,2024-01-16 21:16:57.151,1
-0.667,-0.211,0.716,1.282,0.61,-4.272,2024-01-16 21:16:57.209,1
-0.667,-0.211,0.716,1.282,0.61,-4.272,2024-01-16 21:16:57.209,1
-0.648,-0.226,0.721,0.305,0.977,-4.333,2024-01-16 21:16:57.361,1
-0.648,-0.226,0.721,0.305,0.977,-4.333,2024-01-16 21:16:57.362,1
-0.669,-0.217,0.719,-1.404,0.061,-4.395,2024-01-16 21:16:57.418,1
-0.669,-0.217,0.719,-1.404,0.061,-4.395,2024-01-16 21:16:57.418,1
-0.672,-0.229,0.717,-1.404,0.916,-2.747,2024-01-16 21:16:57.542,1
-0.672,-0.229,0.717,-1.404,0.916,-2.747,2024-01-16 21:16:57.543,1
-0.653,-0.239,0.711,-0.061,2.441,-1.221,2024-01-16 21:16:57.629,1
-0.653,-0.239,0.711,-0.061,2.441,-1.221,2024-01-16 21:16:57.630,1
-0.667,-0.227,0.709,-0.549,-0.854,1.099,2024-01-16 21:16:57.750,1
-0.667,-0.227,0.709,-0.549,-0.854,1.099,2024-01-16 21:16:57.750,1
-0.659,-0.239,0.708,0.61,-0.061,0.488,2024-01-16 21:16:57.812,1
-0.659,-0.239,0.708,0.61,-0.061,0.488,2024-01-16 21:16:57.812,1
-0.665,-0.236,0.71,0.0,0.0,0.671,2024-01-16 21:16:57.932,1
-0.665,-0.236,0.71,0.0,0.0,0.671,2024-01-16 21:16:57.932,1
-0.662,-0.229,0.708,0.488,0.244,0.122,2024-01-16 21:16:58.210,1
-0.662,-0.229,0.708,0.488,0.244,0.122,2024-01-16 21:16:58.220,1
-0.669,-0.23,0.71,0.671,0.183,0.0,2024-01-16 21:16:58.139,1
-0.669,-0.23,0.71,0.671,0.183,0.0,2024-01-16 21:16:58.139,1
-0.675,-0.228,0.713,-0.122,-0.488,0.061,2024-01-16 21:16:58.231,1
-0.675,-0.228,0.713,-0.122,-0.488,0.061,2024-01-16 21:16:58.231,1
-0.671,-0.23,0.711,0.366,0.0,0.305,2024-01-16 21:16:58.351,1
-0.671,-0.23,0.711,0.366,0.0,0.305,2024-01-16 21:16:58.352,1
-0.669,-0.225,0.706,0.305,0.793,0.244,2024-01-16 21:16:58.442,1
-0.669,-0.225,0.706,0.305,0.793,0.244,2024-01-16 21:16:58.443,1
-0.668,-0.228,0.707,0.61,0.732,0.122,2024-01-16 21:16:58.559,1
-0.668,-0.228,0.707,0.61,0.732,0.122,2024-01-16 21:16:58.559,1
-0.669,-0.233,0.71,0.793,0.732,-0.244,2024-01-16 21:16:58.621,1
-0.669,-0.233,0.71,0.793,0.732,-0.244,2024-01-16 21:16:58.621,1
-0.667,-0.226,0.711,0.0,-0.366,0.0,2024-01-16 21:16:58.742,1
-0.667,-0.226,0.711,0.0,-0.366,0.0,2024-01-16 21:16:58.743,1
-0.662,-0.23,0.707,-0.244,-0.793,0.549,2024-01-16 21:16:58.831,1
-0.662,-0.23,0.707,-0.244,-0.793,0.549,2024-01-16 21:16:58.831,1
-0.67,-0.226,0.714,-0.732,-1.16,0.977,2024-01-16 21:16:58.953,1
-0.67,-0.226,0.714,-0.732,-1.16,0.977,2024-01-16 21:16:58.953,1
-0.662,-0.219,0.718,-0.305,-1.038,0.916,2024-01-16 21:16:59.860,1
-0.662,-0.219,0.718,-0.305,-1.038,0.916,2024-01-16 21:16:59.860,1
-0.664,-0.227,0.716,0.122,0.0,0.305,2024-01-16 21:16:59.159,1
-0.664,-0.227,0.716,0.122,0.0,0.305,2024-01-16 21:16:59.160,1
-0.659,-0.222,0.717,0.122,-0.916,0.732,2024-01-16 21:16:59.251,1
-0.659,-0.222,0.717,0.122,-0.916,0.732,2024-01-16 21:16:59.252,1
-0.656,-0.221,0.714,-0.061,-1.038,1.221,2024-01-16 21:16:59.342,1
-0.656,-0.221,0.714,-0.061,-1.038,1.221,2024-01-16 21:16:59.343,1
-0.657,-0.233,0.721,0.671,-1.16,2.441,2024-01-16 21:16:59.431,1
-0.657,-0.233,0.721,0.671,-1.16,2.441,2024-01-16 21:16:59.431,1
-0.649,-0.215,0.725,-2.197,-2.625,1.77,2024-01-16 21:16:59.586,1
-0.649,-0.215,0.725,-2.197,-2.625,1.77,2024-01-16 21:16:59.586,1
-0.654,-0.222,0.72,-1.099,-2.258,0.122,2024-01-16 21:16:59.643,1
-0.654,-0.222,0.72,-1.099,-2.258,0.122,2024-01-16 21:16:59.643,1
-0.66,-0.213,0.732,0.122,-2.441,0.244,2024-01-16 21:16:59.783,1
-0.66,-0.213,0.732,0.122,-2.441,0.244,2024-01-16 21:16:59.783,1
-0.659,-0.221,0.728,0.183,-1.099,0.61,2024-01-16 21:16:59.882,1
-0.659,-0.221,0.728,0.183,-1.099,0.61,2024-01-16 21:16:59.883,1
-0.663,-0.218,0.726,-0.183,-0.305,0.916,2024-01-16 21:16:59.989,1
-0.663,-0.218,0.726,-0.183,-0.305,0.916,2024-01-16 21:16:59.989,1
-0.646,-0.211,0.724,-0.061,0.488,0.549,2024-01-16 21:17:00.850,1
-0.646,-0.211,0.724,-0.061,0.488,0.549,2024-01-16 21:17:00.850,1
-0.658,-0.218,0.723,-0.427,1.221,0.244,2024-01-16 21:17:00.152,1
-0.658,-0.218,0.723,-0.427,1.221,0.244,2024-01-16 21:17:00.153,1
-0.659,-0.216,0.727,0.244,1.038,-0.549,2024-01-16 21:17:00.242,1
-0.659,-0.216,0.727,0.244,1.038,-0.549,2024-01-16 21:17:00.243,1
-0.667,-0.214,0.72,0.366,1.221,-0.549,2024-01-16 21:17:00.380,1
-0.667,-0.214,0.72,0.366,1.221,-0.549,2024-01-16 21:17:00.380,1
-0.659,-0.216,0.724,0.671,1.221,-0.366,2024-01-16 21:17:00.454,1
-0.659,-0.216,0.724,0.671,1.221,-0.366,2024-01-16 21:17:00.454,1
-0.653,-0.214,0.719,0.793,0.977,-0.366,2024-01-16 21:17:00.587,1
-0.653,-0.214,0.719,0.793,0.977,-0.366,2024-01-16 21:17:00.588,1
-0.667,-0.218,0.714,0.0,0.488,0.122,2024-01-16 21:17:00.630,1
-0.667,-0.218,0.714,0.0,0.488,0.122,2024-01-16 21:17:00.631,1
-0.658,-0.221,0.719,0.61,0.671,-0.61,2024-01-16 21:17:00.752,1
-0.658,-0.221,0.719,0.61,0.671,-0.61,2024-01-16 21:17:00.752,1
-0.656,-0.223,0.714,0.427,0.854,-1.038,2024-01-16 21:17:00.842,1
-0.656,-0.223,0.714,0.427,0.854,-1.038,2024-01-16 21:17:00.842,1
-0.662,-0.23,0.715,0.122,0.671,-1.404,2024-01-16 21:17:00.984,1
-0.662,-0.23,0.715,0.122,0.671,-1.404,2024-01-16 21:17:00.984,1
-0.652,-0.228,0.723,-1.16,0.732,-0.122,2024-01-16 21:17:01.990,1
-0.652,-0.228,0.723,-1.16,0.732,-0.122,2024-01-16 21:17:01.100,1
-0.656,-0.221,0.709,-2.502,-0.061,2.502,2024-01-16 21:17:01.230,1
-0.656,-0.221,0.709,-2.502,-0.061,2.502,2024-01-16 21:17:01.230,1
-0.66,-0.219,0.723,-2.136,-0.183,2.991,2024-01-16 21:17:01.279,1
-0.66,-0.219,0.723,-2.136,-0.183,2.991,2024-01-16 21:17:01.280,1
-0.655,-0.212,0.718,-1.221,-0.732,2.747,2024-01-16 21:17:01.391,1
-0.655,-0.212,0.718,-1.221,-0.732,2.747,2024-01-16 21:17:01.391,1
-0.67,-0.212,0.717,-0.488,-0.854,1.892,2024-01-16 21:17:01.441,1
-0.67,-0.212,0.717,-0.488,-0.854,1.892,2024-01-16 21:17:01.441,1
-0.668,-0.222,0.716,-0.244,-0.366,1.221,2024-01-16 21:17:01.579,1
-0.668,-0.222,0.716,-0.244,-0.366,1.221,2024-01-16 21:17:01.579,1
-0.66,-0.214,0.72,-0.061,-0.854,0.305,2024-01-16 21:17:01.650,1
-0.66,-0.214,0.72,-0.061,-0.854,0.305,2024-01-16 21:17:01.650,1
-0.662,-0.216,0.72,0.183,-0.427,-0.061,2024-01-16 21:17:01.787,1
-0.662,-0.216,0.72,0.183,-0.427,-0.061,2024-01-16 21:17:01.787,1
-0.661,-0.213,0.721,0.244,-0.488,-0.122,2024-01-16 21:17:01.860,1
-0.661,-0.213,0.721,0.244,-0.488,-0.122,2024-01-16 21:17:01.861,1
-0.662,-0.211,0.721,1.099,-0.122,-0.793,2024-01-16 21:17:02.410,1
-0.662,-0.211,0.721,1.099,-0.122,-0.793,2024-01-16 21:17:02.410,1
-0.668,-0.226,0.713,0.0,0.183,0.183,2024-01-16 21:17:02.420,1
-0.668,-0.226,0.713,0.0,0.183,0.183,2024-01-16 21:17:02.420,1
-0.66,-0.206,0.725,-0.244,-0.183,-0.244,2024-01-16 21:17:02.185,1
-0.66,-0.206,0.725,-0.244,-0.183,-0.244,2024-01-16 21:17:02.185,1
-0.66,-0.213,0.723,0.061,0.916,-0.305,2024-01-16 21:17:02.251,1
-0.66,-0.213,0.723,0.061,0.916,-0.305,2024-01-16 21:17:02.251,1
-0.659,-0.217,0.721,0.061,0.977,-0.549,2024-01-16 21:17:02.385,1
-0.659,-0.217,0.721,0.061,0.977,-0.549,2024-01-16 21:17:02.386,1
-0.653,-0.221,0.717,-0.549,0.0,0.305,2024-01-16 21:17:02.486,1
-0.653,-0.221,0.717,-0.549,0.0,0.305,2024-01-16 21:17:02.487,1
-0.668,-0.213,0.718,-1.221,-0.061,0.916,2024-01-16 21:17:02.583,1
-0.668,-0.213,0.718,-1.221,-0.061,0.916,2024-01-16 21:17:02.583,1
-0.663,-0.211,0.72,0.061,0.549,0.427,2024-01-16 21:17:02.684,1
-0.663,-0.211,0.72,0.061,0.549,0.427,2024-01-16 21:17:02.685,1
-0.668,-0.223,0.716,0.061,0.732,0.061,2024-01-16 21:17:02.793,1
-0.668,-0.223,0.716,0.061,0.732,0.061,2024-01-16 21:17:02.793,1
-0.662,-0.217,0.718,-0.488,0.488,0.122,2024-01-16 21:17:02.854,1
-0.662,-0.217,0.718,-0.488,0.488,0.122,2024-01-16 21:17:02.854,1
-0.665,-0.213,0.715,0.488,0.732,0.122,2024-01-16 21:17:02.987,1
-0.665,-0.213,0.715,0.488,0.732,0.122,2024-01-16 21:17:02.988,1
-0.673,-0.214,0.71,-0.061,-0.366,0.122,2024-01-16 21:17:03.610,1
-0.673,-0.214,0.71,-0.061,-0.366,0.122,2024-01-16 21:17:03.620,1
-0.667,-0.219,0.712,0.488,-0.061,-0.244,2024-01-16 21:17:03.188,1
-0.667,-0.219,0.712,0.488,-0.061,-0.244,2024-01-16 21:17:03.188,1
-0.665,-0.213,0.714,0.549,0.427,-0.549,2024-01-16 21:17:03.289,1
-0.665,-0.213,0.714,0.549,0.427,-0.549,2024-01-16 21:17:03.290,1
-0.676,-0.22,0.713,0.549,1.038,-0.549,2024-01-16 21:17:03.391,1
-0.676,-0.22,0.713,0.549,1.038,-0.549,2024-01-16 21:17:03.391,1
-0.671,-0.221,0.71,0.671,1.404,-0.488,2024-01-16 21:17:03.450,1
-0.671,-0.221,0.71,0.671,1.404,-0.488,2024-01-16 21:17:03.451,1
-0.667,-0.217,0.711,-0.122,0.183,-0.061,2024-01-16 21:17:03.587,1
-0.667,-0.217,0.711,-0.122,0.183,-0.061,2024-01-16 21:17:03.587,1
-0.669,-0.215,0.712,0.0,-0.122,0.244,2024-01-16 21:17:03.661,1
-0.669,-0.215,0.712,0.0,-0.122,0.244,2024-01-16 21:17:03.662,1
-0.668,-0.218,0.713,-0.183,-0.793,0.0,2024-01-16 21:17:03.786,1
-0.668,-0.218,0.713,-0.183,-0.793,0.0,2024-01-16 21:17:03.787,1
-0.673,-0.211,0.716,0.122,-0.916,-0.793,2024-01-16 21:17:03.885,1
-0.673,-0.211,0.716,0.122,-0.916,-0.793,2024-01-16 21:17:03.885,1
-0.668,-0.207,0.707,0.183,0.0,-0.977,2024-01-16 21:17:03.990,1
-0.668,-0.207,0.707,0.183,0.0,-0.977,2024-01-16 21:17:03.990,1
-0.654,-0.213,0.715,1.587,2.075,-3.296,2024-01-16 21:17:04.910,1
-0.654,-0.213,0.715,1.587,2.075,-3.296,2024-01-16 21:17:04.910,1
-0.65,-0.223,0.708,1.709,2.014,-3.296,2024-01-16 21:17:04.197,1
-0.65,-0.223,0.708,1.709,2.014,-3.296,2024-01-16 21:17:04.197,1
-0.653,-0.23,0.704,1.404,0.061,-2.319,2024-01-16 21:17:04.261,1
-0.653,-0.23,0.704,1.404,0.061,-2.319,2024-01-16 21:17:04.262,1
-0.654,-0.215,0.716,1.526,-1.892,-1.892,2024-01-16 21:17:04.385,1
-0.654,-0.215,0.716,1.526,-1.892,-1.892,2024-01-16 21:17:04.386,1
-0.656,-0.224,0.713,2.136,-1.709,-1.77,2024-01-16 21:17:04.483,1
-0.656,-0.224,0.713,2.136,-1.709,-1.77,2024-01-16 21:17:04.484,1
-0.657,-0.225,0.72,1.404,-1.892,-1.038,2024-01-16 21:17:04.591,1
-0.657,-0.225,0.72,1.404,-1.892,-1.038,2024-01-16 21:17:04.592,1
-0.661,-0.225,0.72,-0.061,-1.709,0.061,2024-01-16 21:17:04.684,1
-0.661,-0.225,0.72,-0.061,-1.709,0.061,2024-01-16 21:17:04.684,1
-0.663,-0.222,0.724,-0.183,-1.099,0.305,2024-01-16 21:17:04.798,1
-0.663,-0.222,0.724,-0.183,-1.099,0.305,2024-01-16 21:17:04.798,1
-0.657,-0.222,0.727,-0.549,0.0,0.61,2024-01-16 21:17:04.861,1
-0.657,-0.222,0.727,-0.549,0.0,0.61,2024-01-16 21:17:04.862,1
-0.655,-0.218,0.724,-1.343,0.244,0.366,2024-01-16 21:17:04.987,1
-0.655,-0.218,0.724,-1.343,0.244,0.366,2024-01-16 21:17:04.987,1
-0.656,-0.219,0.723,-0.427,0.671,0.427,2024-01-16 21:17:05.840,1
-0.656,-0.219,0.723,-0.427,0.671,0.427,2024-01-16 21:17:05.850,1
-0.663,-0.216,0.724,-0.366,0.122,1.16,2024-01-16 21:17:05.191,1
-0.663,-0.216,0.724,-0.366,0.122,1.16,2024-01-16 21:17:05.191,1
-0.658,-0.219,0.72,0.183,-0.366,1.038,2024-01-16 21:17:05.287,1
-0.658,-0.219,0.72,0.183,-0.366,1.038,2024-01-16 21:17:05.287,1
-0.661,-0.221,0.719,-0.061,-0.61,1.526,2024-01-16 21:17:05.400,1
-0.661,-0.221,0.719,-0.061,-0.61,1.526,2024-01-16 21:17:05.400,1
-0.661,-0.217,0.72,-0.183,-0.916,0.916,2024-01-16 21:17:05.490,1
-0.661,-0.217,0.72,-0.183,-0.916,0.916,2024-01-16 21:17:05.490,1
-0.659,-0.221,0.722,-0.122,-0.488,0.122,2024-01-16 21:17:05.611,1
-0.659,-0.221,0.722,-0.122,-0.488,0.122,2024-01-16 21:17:05.611,1
-0.663,-0.217,0.723,0.061,-0.183,-0.549,2024-01-16 21:17:05.691,1
-0.663,-0.217,0.723,0.061,-0.183,-0.549,2024-01-16 21:17:05.691,1
-0.643,-0.215,0.722,0.122,0.183,-1.343,2024-01-16 21:17:05.790,1
-0.643,-0.215,0.722,0.122,0.183,-1.343,2024-01-16 21:17:05.790,1
-0.657,-0.22,0.72,0.183,0.305,-1.282,2024-01-16 21:17:05.885,1
-0.657,-0.22,0.72,0.183,0.305,-1.282,2024-01-16 21:17:05.886,1
-0.654,-0.225,0.721,0.732,0.061,-1.099,2024-01-16 21:17:06.000,1
-0.654,-0.225,0.721,0.732,0.061,-1.099,2024-01-16 21:17:06.000,1
-0.654,-0.222,0.721,0.0,0.183,-0.427,2024-01-16 21:17:06.104,1
-0.654,-0.222,0.721,0.0,0.183,-0.427,2024-01-16 21:17:06.104,1
-0.66,-0.223,0.725,-0.427,0.0,0.366,2024-01-16 21:17:06.211,1
-0.66,-0.223,0.725,-0.427,0.0,0.366,2024-01-16 21:17:06.211,1
-0.644,-0.223,0.726,0.0,-0.244,0.549,2024-01-16 21:17:06.279,1
-0.644,-0.223,0.726,0.0,-0.244,0.549,2024-01-16 21:17:06.279,1
-0.66,-0.218,0.721,-0.488,-1.282,0.671,2024-01-16 21:17:06.391,1
-0.66,-0.218,0.721,-0.488,-1.282,0.671,2024-01-16 21:17:06.392,1
-0.652,-0.219,0.728,-0.122,-0.305,0.549,2024-01-16 21:17:06.492,1
-0.652,-0.219,0.728,-0.122,-0.305,0.549,2024-01-16 21:17:06.492,1
-0.648,-0.216,0.723,0.0,-0.122,0.183,2024-01-16 21:17:06.601,1
-0.648,-0.216,0.723,0.0,-0.122,0.183,2024-01-16 21:17:06.601,1
-0.659,-0.215,0.726,0.0,0.183,0.0,2024-01-16 21:17:06.691,1
-0.659,-0.215,0.726,0.0,0.183,0.0,2024-01-16 21:17:06.692,1
-0.648,-0.224,0.728,0.671,0.305,0.0,2024-01-16 21:17:06.810,1
-0.648,-0.224,0.728,0.671,0.305,0.0,2024-01-16 21:17:06.810,1
-0.653,-0.212,0.727,0.061,-0.854,0.061,2024-01-16 21:17:06.898,1
-0.653,-0.212,0.727,0.061,-0.854,0.061,2024-01-16 21:17:06.899,1
-0.659,-0.223,0.726,0.366,-0.305,-0.122,2024-01-16 21:17:07.220,1
-0.659,-0.223,0.726,0.366,-0.305,-0.122,2024-01-16 21:17:07.220,1
-0.65,-0.219,0.729,-0.244,0.061,0.0,2024-01-16 21:17:07.860,1
-0.65,-0.219,0.729,-0.244,0.061,0.0,2024-01-16 21:17:07.860,1
-0.67,-0.221,0.729,-0.244,1.587,-0.427,2024-01-16 21:17:07.200,1
-0.67,-0.221,0.729,-0.244,1.587,-0.427,2024-01-16 21:17:07.200,1
-0.735,-0.23,0.731,-0.549,4.15,-0.122,2024-01-16 21:17:07.294,1
-0.735,-0.23,0.731,-0.549,4.15,-0.122,2024-01-16 21:17:07.294,1
-0.773,-0.224,0.738,-2.38,11.292,0.916,2024-01-16 21:17:07.411,1
-0.773,-0.224,0.738,-2.38,11.292,0.916,2024-01-16 21:17:07.412,1
-0.713,-0.24,0.708,-3.54,29.907,-0.061,2024-01-16 21:17:07.500,1
-0.713,-0.24,0.708,-3.54,29.907,-0.061,2024-01-16 21:17:07.500,1
-0.326,-0.264,0.467,-16.174,49.866,-0.549,2024-01-16 21:17:07.622,1
-0.326,-0.264,0.467,-16.174,49.866,-0.549,2024-01-16 21:17:07.623,1
-0.748,0.013,0.372,-16.846,62.805,0.732,2024-01-16 21:17:07.681,0
-0.748,0.013,0.372,-16.846,62.805,0.732,2024-01-16 21:17:07.681,0
-0.994,-0.356,0.541,-2.991,32.227,-11.353,2024-01-16 21:17:07.800,1
-0.994,-0.356,0.541,-2.991,32.227,-11.353,2024-01-16 21:17:07.800,1
-1.501,-0.32,0.824,4.639,-10.803,-1.587,2024-01-16 21:17:07.890,1
-1.501,-0.32,0.824,4.639,-10.803,-1.587,2024-01-16 21:17:07.890,1
-1.443,-0.565,1.308,26.367,-74.585,4.15,2024-01-16 21:17:08.100,1
-1.443,-0.565,1.308,26.367,-74.585,4.15,2024-01-16 21:17:08.110,1
-0.199,-0.506,0.819,-0.427,-69.763,11.78,2024-01-16 21:17:08.102,1
-0.199,-0.506,0.819,-0.427,-69.763,11.78,2024-01-16 21:17:08.102,1
0.006,-0.029,-0.066,-6.531,-0.488,-12.512,2024-01-16 21:17:08.221,0
0.006,-0.029,-0.066,-6.531,-0.488,-12.512,2024-01-16 21:17:08.222,0
-0.159,0.047,-0.503,-86.243,438.721,3.418,2024-01-16 21:17:08.311,0
-0.159,0.047,-0.503,-86.243,438.721,3.418,2024-01-16 21:17:08.311,0
-1.059,0.189,-0.115,159.668,-362.732,4.15,2024-01-16 21:17:08.490,0
-1.059,0.189,-0.115,159.668,-362.732,4.15,2024-01-16 21:17:08.490,0
-2.122,-0.255,0.679,207.336,56.702,135.803,2024-01-16 21:17:08.491,0
-2.122,-0.255,0.679,207.336,56.702,135.803,2024-01-16 21:17:08.491,0
-0.982,-0.815,0.712,-49.988,-26.245,20.02,2024-01-16 21:17:08.612,1
-0.982,-0.815,0.712,-49.988,-26.245,20.02,2024-01-16 21:17:08.612,1
-1.098,-0.235,1.42,39.124,-27.893,-9.827,2024-01-16 21:17:08.700,1
-1.098,-0.235,1.42,39.124,-27.893,-9.827,2024-01-16 21:17:08.701,1
-1.122,-0.512,1.137,34.607,-50.72,3.967,2024-01-16 21:17:08.821,1
-1.122,-0.512,1.137,34.607,-50.72,3.967,2024-01-16 21:17:08.821,1
-0.006,-0.396,0.528,8.789,-28.625,5.249,2024-01-16 21:17:08.911,1
-0.006,-0.396,0.528,8.789,-28.625,5.249,2024-01-16 21:17:08.911,1
0.03,0.002,-0.128,-20.691,67.749,-62.805,2024-01-16 21:17:09.320,0
0.03,0.002,-0.128,-20.691,67.749,-62.805,2024-01-16 21:17:09.320,0
0.002,0.01,-0.309,-162.537,229.736,-35.4,2024-01-16 21:17:09.900,0
0.002,0.01,-0.309,-162.537,229.736,-35.4,2024-01-16 21:17:09.910,0
-1.171,0.004,-0.009,177.612,-128.418,-43.579,2024-01-16 21:17:09.209,0
-1.171,0.004,-0.009,177.612,-128.418,-43.579,2024-01-16 21:17:09.210,0
-1.146,-0.311,1.272,-29.297,-120.605,25.391,2024-01-16 21:17:09.299,1
-1.146,-0.311,1.272,-29.297,-120.605,25.391,2024-01-16 21:17:09.299,1
-1.125,-0.406,1.089,19.409,179.443,-25.146,2024-01-16 21:17:09.421,1
-1.125,-0.406,1.089,19.409,179.443,-25.146,2024-01-16 21:17:09.421,1
-0.901,-0.164,1.113,38.086,-60.303,-9.338,2024-01-16 21:17:09.509,1
-0.901,-0.164,1.113,38.086,-60.303,-9.338,2024-01-16 21:17:09.509,1
-1.181,-0.448,1.411,2.808,-43.518,8.362,2024-01-16 21:17:09.631,1
-1.181,-0.448,1.411,2.808,-43.518,8.362,2024-01-16 21:17:09.631,1
-0.088,-0.395,0.665,-27.039,-20.752,16.357,2024-01-16 21:17:09.721,1
-0.088,-0.395,0.665,-27.039,-20.752,16.357,2024-01-16 21:17:09.721,1
0.051,-0.005,-0.049,-10.498,183.716,39.429,2024-01-16 21:17:09.843,0
0.051,-0.005,-0.049,-10.498,183.716,39.429,2024-01-16 21:17:09.843,0
0.102,0.016,-0.216,-126.526,200.745,-45.898,2024-01-16 21:17:09.900,0
0.102,0.016,-0.216,-126.526,200.745,-45.898,2024-01-16 21:17:09.901,0
-1.092,-0.04,0.121,30.579,-519.836,14.343,2024-01-16 21:17:10.190,0
-1.092,-0.04,0.121,30.579,-519.836,14.343,2024-01-16 21:17:10.190,0
-5.015,0.253,1.275,6.775,-34.729,-33.081,2024-01-16 21:17:10.110,0
-5.015,0.253,1.275,6.775,-34.729,-33.081,2024-01-16 21:17:10.111,0
-0.617,-0.51,-0.543,44.556,378.357,-411.255,2024-01-16 21:17:10.231,0
-0.617,-0.51,-0.543,44.556,378.357,-411.255,2024-01-16 21:17:10.231,0
-0.675,0.069,1.028,12.451,-44.617,11.78,2024-01-16 21:17:10.322,0
-0.675,0.069,1.028,12.451,-44.617,11.78,2024-01-16 21:17:10.322,0
