acc_X(g)	acc_Y(g)	acc_Z(g)	Time	Cluster
-0.388	0.784	0.486	2024-01-02 18:01:07.170	1
-0.388	0.783	0.485	2024-01-02 18:01:07.138	1
-0.388	0.784	0.486	2024-01-02 18:01:07.225	1
-0.388	0.784	0.486	2024-01-02 18:01:07.343	1
-0.387	0.783	0.486	2024-01-02 18:01:07.435	1
-0.388	0.784	0.486	2024-01-02 18:01:07.558	1
-0.387	0.784	0.485	2024-01-02 18:01:07.644	1
-0.389	0.784	0.485	2024-01-02 18:01:07.768	1
-0.388	0.784	0.486	2024-01-02 18:01:07.828	1
-0.388	0.783	0.486	2024-01-02 18:01:07.945	1
-0.388	0.784	0.486	2024-01-02 18:01:08.380	1
-0.387	0.785	0.485	2024-01-02 18:01:08.157	1
-0.388	0.784	0.486	2024-01-02 18:01:08.247	1
-0.388	0.784	0.487	2024-01-02 18:01:08.365	1
-0.388	0.784	0.485	2024-01-02 18:01:08.427	1
-0.387	0.784	0.487	2024-01-02 18:01:08.547	1
-0.388	0.784	0.485	2024-01-02 18:01:08.638	1
-0.387	0.785	0.486	2024-01-02 18:01:08.758	1
-0.388	0.784	0.486	2024-01-02 18:01:08.848	1
-0.388	0.784	0.486	2024-01-02 18:01:08.968	1
-0.387	0.784	0.486	2024-01-02 18:01:09.570	1
-0.387	0.784	0.485	2024-01-02 18:01:09.178	1
-0.388	0.785	0.486	2024-01-02 18:01:09.239	1
-0.388	0.784	0.486	2024-01-02 18:01:09.357	1
-0.388	0.784	0.486	2024-01-02 18:01:09.448	1
-0.388	0.784	0.487	2024-01-02 18:01:09.568	1
-0.388	0.784	0.485	2024-01-02 18:01:09.658	1
-0.387	0.783	0.486	2024-01-02 18:01:09.778	1
-0.388	0.784	0.486	2024-01-02 18:01:09.838	1
-0.387	0.784	0.486	2024-01-02 18:01:09.957	1
-0.388	0.784	0.485	2024-01-02 18:01:10.470	1
-0.388	0.784	0.485	2024-01-02 18:01:10.197	1
-0.388	0.784	0.487	2024-01-02 18:01:10.257	1
-0.388	0.784	0.486	2024-01-02 18:01:10.378	1
-0.387	0.784	0.485	2024-01-02 18:01:10.468	1
-0.387	0.784	0.486	2024-01-02 18:01:10.587	1
-0.388	0.784	0.486	2024-01-02 18:01:10.647	1
-0.388	0.784	0.485	2024-01-02 18:01:10.797	1
-0.388	0.784	0.487	2024-01-02 18:01:10.858	1
-0.388	0.784	0.486	2024-01-02 18:01:10.980	1
-0.388	0.784	0.485	2024-01-02 18:01:11.670	1
-0.387	0.784	0.487	2024-01-02 18:01:11.188	1
-0.388	0.785	0.486	2024-01-02 18:01:11.249	1
-0.387	0.784	0.486	2024-01-02 18:01:11.367	1
-0.388	0.784	0.485	2024-01-02 18:01:11.458	1
-0.388	0.785	0.486	2024-01-02 18:01:11.580	1
-0.388	0.783	0.487	2024-01-02 18:01:11.668	1
-0.387	0.784	0.486	2024-01-02 18:01:11.787	1
-0.387	0.784	0.485	2024-01-02 18:01:11.908	1
-0.388	0.784	0.486	2024-01-02 18:01:11.997	1
-0.387	0.784	0.486	2024-01-02 18:01:12.590	1
-0.388	0.784	0.486	2024-01-02 18:01:12.179	1
-0.388	0.784	0.486	2024-01-02 18:01:12.267	1
-0.387	0.784	0.486	2024-01-02 18:01:12.386	1
-0.387	0.784	0.485	2024-01-02 18:01:12.481	1
-0.387	0.784	0.485	2024-01-02 18:01:12.594	1
-0.387	0.784	0.485	2024-01-02 18:01:12.655	1
-0.387	0.784	0.485	2024-01-02 18:01:12.779	1
-0.387	0.784	0.486	2024-01-02 18:01:12.865	1
-0.388	0.784	0.487	2024-01-02 18:01:12.986	1
-0.388	0.784	0.486	2024-01-02 18:01:13.810	1
-0.387	0.784	0.486	2024-01-02 18:01:13.196	1
-0.388	0.783	0.485	2024-01-02 18:01:13.257	1
-0.387	0.783	0.485	2024-01-02 18:01:13.405	1
-0.387	0.784	0.486	2024-01-02 18:01:13.466	1
-0.388	0.784	0.486	2024-01-02 18:01:13.587	1
-0.387	0.784	0.486	2024-01-02 18:01:13.681	1
-0.387	0.783	0.486	2024-01-02 18:01:13.796	1
-0.403	0.783	0.485	2024-01-02 18:01:13.887	1
-0.378	0.771	0.482	2024-01-02 18:01:14.600	1
-0.384	0.787	0.492	2024-01-02 18:01:14.650	1
-0.393	0.788	0.485	2024-01-02 18:01:14.182	1
-0.379	0.776	0.477	2024-01-02 18:01:14.282	1
-0.39	0.791	0.496	2024-01-02 18:01:14.394	1
-0.387	0.787	0.48	2024-01-02 18:01:14.552	1
0.735	0.779	0.488	2024-01-02 18:02:09.710	1
0.739	0.506	-0.456	2024-01-02 18:02:09.206	2
0.729	0.505	-0.461	2024-01-02 18:02:09.263	2
0.729	0.507	-0.456	2024-01-02 18:02:09.386	2
0.731	0.5	-0.458	2024-01-02 18:02:09.475	2
0.73	0.502	-0.463	2024-01-02 18:02:09.594	2
0.73	0.506	-0.462	2024-01-02 18:02:09.654	2
0.729	0.507	-0.463	2024-01-02 18:02:09.804	2
0.725	0.509	-0.466	2024-01-02 18:02:09.864	2
0.724	0.509	-0.468	2024-01-02 18:02:09.985	2
0.727	0.508	-0.468	2024-01-02 18:02:10.790	2
0.729	0.502	-0.467	2024-01-02 18:02:10.194	2
0.731	0.505	-0.469	2024-01-02 18:02:10.284	2
0.728	0.502	-0.468	2024-01-02 18:02:10.406	2
0.728	0.506	-0.471	2024-01-02 18:02:10.465	2
0.732	0.501	-0.466	2024-01-02 18:02:10.586	2
0.751	0.507	-0.463	2024-01-02 18:02:10.679	2
0.727	0.505	-0.446	2024-01-02 18:02:10.794	2
0.738	0.504	-0.466	2024-01-02 18:02:10.886	2
0.754	0.495	-0.446	2024-01-02 18:02:11.700	2
0.771	0.514	-0.435	2024-01-02 18:02:11.680	2
0.761	0.512	-0.424	2024-01-02 18:02:11.184	2
0.775	0.489	-0.418	2024-01-02 18:02:11.278	2
0.785	0.47	-0.391	2024-01-02 18:02:11.395	2
0.8	0.473	-0.385	2024-01-02 18:02:11.485	2
0.792	0.473	-0.371	2024-01-02 18:02:11.607	2
0.791	0.468	-0.368	2024-01-02 18:02:11.693	2
0.788	0.466	-0.365	2024-01-02 18:02:11.816	2
0.793	0.47	-0.369	2024-01-02 18:02:11.881	2
0.768	0.478	-0.37	2024-01-02 18:02:11.994	2
0.769	0.466	-0.395	2024-01-02 18:02:12.118	2
0.76	0.479	-0.416	2024-01-02 18:02:12.205	2
0.751	0.49	-0.431	2024-01-02 18:02:12.294	2
0.749	0.514	-0.454	2024-01-02 18:02:12.415	2
0.741	0.521	-0.461	2024-01-02 18:02:12.478	2
0.722	0.534	-0.473	2024-01-02 18:02:12.597	2
0.726	0.517	-0.47	2024-01-02 18:02:12.685	2
0.723	0.518	-0.477	2024-01-02 18:02:12.805	2
0.733	0.515	-0.463	2024-01-02 18:02:12.894	2
0.729	0.539	-0.456	2024-01-02 18:02:13.150	2
0.748	0.578	-0.454	2024-01-02 18:02:13.104	2
0.831	0.568	-0.439	2024-01-02 18:02:13.225	2
0.698	0.558	-0.379	2024-01-02 18:02:13.286	2
0.883	0.242	-0.445	2024-01-02 18:02:13.405	2
0.832	0.382	-0.328	2024-01-02 18:02:13.493	2
0.863	0.357	-0.404	2024-01-02 18:02:13.614	2
0.832	0.299	-0.4	2024-01-02 18:02:13.705	2
0.78	0.369	-0.503	2024-01-02 18:02:13.825	2
0.535	0.9	-0.349	2024-01-02 18:02:13.886	1
0.601	0.719	-0.551	2024-01-02 18:02:14.400	2
0.701	0.474	-0.42	2024-01-02 18:02:14.950	2
0.673	0.503	-0.438	2024-01-02 18:02:14.218	2
0.643	0.467	-0.457	2024-01-02 18:02:14.306	2
1.013	0.302	-0.468	2024-01-02 18:02:14.425	2
0.887	0.743	-0.467	2024-01-02 18:02:14.515	2
0.815	0.572	-0.309	2024-01-02 18:02:14.634	2
0.716	0.444	-0.255	2024-01-02 18:02:14.695	2
0.741	0.372	-0.354	2024-01-02 18:02:14.815	2
0.851	0.411	-0.418	2024-01-02 18:02:14.905	2
0.784	0.477	-0.445	2024-01-02 18:02:15.240	2
0.826	0.394	-0.613	2024-01-02 18:02:15.114	2
0.843	0.697	-0.527	2024-01-02 18:02:15.233	2
0.624	0.589	-0.17	2024-01-02 18:02:15.292	1
0.53	0.634	-0.394	2024-01-02 18:02:15.413	1
0.429	0.567	-0.378	2024-01-02 18:02:15.504	1
0.54	0.53	-0.458	2024-01-02 18:02:15.654	2
1.154	0.63	-0.663	2024-01-02 18:02:15.714	2
0.868	0.854	-0.429	2024-01-02 18:02:15.838	2
0.803	0.446	-0.314	2024-01-02 18:02:15.955	2
0.84	0.455	-0.286	2024-01-02 18:02:16.450	2
0.767	0.396	-0.333	2024-01-02 18:02:16.104	2
0.823	0.345	-0.391	2024-01-02 18:02:16.224	2
0.675	0.458	-0.36	2024-01-02 18:02:16.313	2
0.567	0.779	-0.395	2024-01-02 18:02:16.434	1
0.633	0.65	-0.54	2024-01-02 18:02:16.524	2
0.668	0.613	-0.444	2024-01-02 18:02:16.644	2
0.691	0.605	-0.455	2024-01-02 18:02:16.703	2
0.689	0.558	-0.457	2024-01-02 18:02:16.823	2
0.682	0.561	-0.464	2024-01-02 18:02:16.913	2
0.687	0.576	-0.478	2024-01-02 18:02:17.340	2
0.639	0.597	-0.474	2024-01-02 18:02:17.123	2
0.703	0.58	-0.502	2024-01-02 18:02:17.244	2
0.704	0.552	-0.438	2024-01-02 18:02:17.335	2
0.717	0.537	-0.43	2024-01-02 18:02:17.456	2
0.741	0.542	-0.434	2024-01-02 18:02:17.513	2
0.758	0.508	-0.418	2024-01-02 18:02:17.634	2
0.802	0.466	-0.412	2024-01-02 18:02:17.724	2
0.811	0.449	-0.417	2024-01-02 18:02:17.844	2
0.795	0.448	-0.424	2024-01-02 18:02:17.934	2
0.804	0.44	-0.423	2024-01-02 18:02:18.540	2
0.79	0.456	-0.436	2024-01-02 18:02:18.114	2
0.805	0.438	-0.445	2024-01-02 18:02:18.233	2
0.802	0.416	-0.46	2024-01-02 18:02:18.323	2
0.791	0.446	-0.437	2024-01-02 18:02:18.447	2
0.765	0.48	-0.443	2024-01-02 18:02:18.534	2
0.731	0.458	-0.456	2024-01-02 18:02:18.655	2
0.731	0.449	-0.457	2024-01-02 18:02:18.747	2
0.789	0.421	-0.486	2024-01-02 18:02:18.865	2
0.719	0.481	-0.486	2024-01-02 18:02:18.925	2
0.833	0.44	-0.508	2024-01-02 18:02:19.440	2
0.84	0.69	-0.496	2024-01-02 18:02:19.134	2
0.469	0.969	-0.029	2024-01-02 18:02:19.255	1
0.577	0.644	-0.17	2024-01-02 18:02:19.344	1
0.532	0.691	-0.131	2024-01-02 18:02:19.465	1
0.595	0.746	-0.132	2024-01-02 18:02:19.524	1
0.701	0.66	-0.06	2024-01-02 18:02:19.683	1
0.769	0.859	-0.043	2024-01-02 18:02:19.735	1
0.987	0.535	-0.278	2024-01-02 18:02:19.855	2
0.88	0.323	-0.102	2024-01-02 18:02:19.945	2
0.85	0.406	-0.117	2024-01-02 18:02:20.640	2
0.845	0.425	-0.134	2024-01-02 18:02:20.154	2
0.92	0.44	-0.16	2024-01-02 18:02:20.284	2
1.09	0.436	-0.122	2024-01-02 18:02:20.334	2
1.014	0.431	-0.025	2024-01-02 18:02:20.454	2
0.569	0.672	-0.214	2024-01-02 18:02:20.545	1
0.579	0.681	-0.605	2024-01-02 18:02:20.665	2
0.458	0.524	-0.271	2024-01-02 18:02:20.754	1
0.626	0.642	-0.496	2024-01-02 18:02:20.881	2
0.532	0.707	-0.42	2024-01-02 18:02:20.934	1
0.499	0.708	-0.44	2024-01-02 18:02:21.570	1
0.682	0.717	-0.472	2024-01-02 18:02:21.154	2
0.708	0.725	-0.486	2024-01-02 18:02:21.265	2
1.0	0.523	-0.394	2024-01-02 18:02:21.355	2
0.811	0.499	-0.377	2024-01-02 18:02:21.478	2
0.849	0.386	-0.35	2024-01-02 18:02:21.565	2
0.887	0.424	-0.34	2024-01-02 18:02:21.687	2
0.911	0.412	-0.362	2024-01-02 18:02:21.745	2
1.025	0.432	-0.299	2024-01-02 18:02:21.864	2
0.661	0.649	-0.22	2024-01-02 18:02:21.954	1
0.573	0.546	-0.214	2024-01-02 18:02:22.850	1
0.48	0.718	-0.158	2024-01-02 18:02:22.165	1
0.493	0.787	-0.088	2024-01-02 18:02:22.289	1
0.509	0.852	-0.035	2024-01-02 18:02:22.345	1
0.481	0.852	0.002	2024-01-02 18:02:22.465	1
0.476	0.838	-0.002	2024-01-02 18:02:22.554	1
0.5	0.839	-0.002	2024-01-02 18:02:22.682	1
0.506	0.882	-0.009	2024-01-02 18:02:22.764	1
0.562	0.833	-0.008	2024-01-02 18:02:22.889	1
0.581	0.826	-0.024	2024-01-02 18:02:22.990	1
0.618	0.769	-0.084	2024-01-02 18:02:23.940	1
0.628	0.825	-0.144	2024-01-02 18:02:23.154	1
0.72	0.852	-0.188	2024-01-02 18:02:23.283	1
0.872	0.708	-0.107	2024-01-02 18:02:23.365	1
0.935	0.653	-0.037	2024-01-02 18:02:23.484	1
0.851	0.649	0.063	2024-01-02 18:02:23.591	1
0.612	0.535	0.206	2024-01-02 18:02:23.694	1
0.592	0.65	0.184	2024-01-02 18:02:23.785	1
0.472	0.682	0.314	2024-01-02 18:02:23.889	1
0.482	0.681	0.413	2024-01-02 18:02:23.965	1
0.474	0.703	0.462	2024-01-02 18:02:24.860	1
0.455	0.688	0.499	2024-01-02 18:02:24.189	1
0.43	0.728	0.521	2024-01-02 18:02:24.294	1
0.491	0.722	0.509	2024-01-02 18:02:24.389	1
0.45	0.731	0.501	2024-01-02 18:02:24.508	1
0.448	0.719	0.424	2024-01-02 18:02:24.565	1
0.538	0.725	0.357	2024-01-02 18:02:24.689	1
0.771	0.648	0.297	2024-01-02 18:02:24.788	1
0.743	0.654	0.333	2024-01-02 18:02:24.894	1
0.934	0.6	0.174	2024-01-02 18:02:24.988	1
1.061	0.44	0.139	2024-01-02 18:02:25.108	1
0.976	0.375	0.144	2024-01-02 18:02:25.165	1
0.952	0.289	0.052	2024-01-02 18:02:25.286	1
0.985	0.185	0.024	2024-01-02 18:02:25.388	2
1.027	0.154	0.021	2024-01-02 18:02:25.494	2
0.997	0.167	0.035	2024-01-02 18:02:25.590	2
1.07	0.06	0.029	2024-01-02 18:02:25.708	2
0.99	0.01	0.029	2024-01-02 18:02:25.797	2
0.958	0.0	0.035	2024-01-02 18:02:25.914	0
0.979	0.065	0.028	2024-01-02 18:02:25.985	2
1.088	0.012	0.05	2024-01-02 18:02:26.940	0
0.913	-0.008	0.107	2024-01-02 18:02:26.188	0
1.032	-0.033	0.044	2024-01-02 18:02:26.308	0
1.064	0.056	0.084	2024-01-02 18:02:26.393	0
0.95	0.006	0.083	2024-01-02 18:02:26.514	0
0.975	0.044	0.086	2024-01-02 18:02:26.586	0
0.973	0.147	0.08	2024-01-02 18:02:26.694	2
0.978	0.141	0.095	2024-01-02 18:02:26.790	0
0.949	0.162	0.074	2024-01-02 18:02:26.933	2
0.914	0.182	0.037	2024-01-02 18:02:26.994	2
1.043	0.233	0.016	2024-01-02 18:02:27.114	2
0.948	0.272	0.003	2024-01-02 18:02:27.204	2
0.879	0.262	-0.041	2024-01-02 18:02:27.324	2
0.841	0.313	-0.111	2024-01-02 18:02:27.389	2
0.885	0.431	-0.212	2024-01-02 18:02:27.508	2
0.898	0.46	-0.276	2024-01-02 18:02:27.594	2
0.879	0.431	-0.305	2024-01-02 18:02:27.714	2
0.839	0.414	-0.331	2024-01-02 18:02:27.806	2
0.795	0.449	-0.371	2024-01-02 18:02:27.924	2
0.792	0.46	-0.398	2024-01-02 18:02:27.991	2
0.781	0.485	-0.408	2024-01-02 18:02:28.103	2
0.755	0.476	-0.43	2024-01-02 18:02:28.194	2
0.751	0.503	-0.486	2024-01-02 18:02:28.315	2
0.729	0.456	-0.47	2024-01-02 18:02:28.407	2
0.732	0.432	-0.48	2024-01-02 18:02:28.524	2
0.73	0.486	-0.499	2024-01-02 18:02:28.614	2
0.756	0.476	-0.481	2024-01-02 18:02:28.735	2
0.751	0.468	-0.476	2024-01-02 18:02:28.793	2
0.729	0.5	-0.489	2024-01-02 18:02:28.913	2
0.739	0.44	-0.479	2024-01-02 18:02:29.340	2
0.746	0.476	-0.487	2024-01-02 18:02:29.124	2
0.729	0.464	-0.468	2024-01-02 18:02:29.214	2
0.735	0.47	-0.476	2024-01-02 18:02:29.336	2
0.732	0.485	-0.479	2024-01-02 18:02:29.393	2
0.777	0.469	-0.467	2024-01-02 18:02:29.514	2
0.747	0.461	-0.446	2024-01-02 18:02:29.603	2
0.757	0.461	-0.472	2024-01-02 18:02:29.722	2
0.766	0.452	-0.469	2024-01-02 18:02:29.813	2
0.759	0.479	-0.463	2024-01-02 18:02:29.935	2
0.747	0.472	-0.454	2024-01-02 18:02:30.230	2
0.742	0.471	-0.45	2024-01-02 18:02:30.144	2
0.753	0.457	-0.44	2024-01-02 18:02:30.203	2
0.719	0.485	-0.448	2024-01-02 18:02:30.323	2
0.868	0.485	-0.466	2024-01-02 18:02:30.415	2
0.727	0.406	-0.436	2024-01-02 18:02:30.534	2
0.773	0.468	-0.46	2024-01-02 18:02:30.623	2
0.819	0.429	-0.416	2024-01-02 18:02:30.744	2
0.725	0.396	-0.357	2024-01-02 18:02:30.804	2
0.766	0.522	-0.443	2024-01-02 18:02:30.923	2
0.811	0.455	-0.382	2024-01-02 18:02:31.150	2
0.777	0.484	-0.403	2024-01-02 18:02:31.133	2
0.778	0.521	-0.428	2024-01-02 18:02:31.224	2
0.794	0.493	-0.431	2024-01-02 18:02:31.344	2
0.765	0.48	-0.404	2024-01-02 18:02:31.437	2
0.747	0.48	-0.402	2024-01-02 18:02:31.555	2
0.75	0.492	-0.399	2024-01-02 18:02:31.613	2
0.712	0.486	-0.389	2024-01-02 18:02:31.734	2
0.768	0.479	-0.403	2024-01-02 18:02:31.823	2
0.768	0.525	-0.432	2024-01-02 18:02:31.944	2
0.781	0.519	-0.403	2024-01-02 18:02:32.340	2
0.737	0.461	-0.399	2024-01-02 18:02:32.185	2
0.761	0.504	-0.414	2024-01-02 18:02:32.214	2
0.781	0.491	-0.426	2024-01-02 18:02:32.334	2
0.846	0.468	-0.392	2024-01-02 18:02:32.427	2
0.765	0.522	-0.396	2024-01-02 18:02:32.544	2
0.717	0.455	-0.344	2024-01-02 18:02:32.634	2
0.664	0.508	-0.437	2024-01-02 18:02:32.755	2
0.805	0.548	-0.442	2024-01-02 18:02:32.844	2
0.749	0.488	-0.364	2024-01-02 18:02:32.965	2
0.75	0.514	-0.46	2024-01-02 18:02:33.240	2
0.779	0.51	-0.431	2024-01-02 18:02:33.186	2
0.761	0.49	-0.42	2024-01-02 18:02:33.235	2
0.813	0.5	-0.481	2024-01-02 18:02:33.355	2
0.75	0.375	-0.375	2024-01-02 18:02:33.444	2
0.809	0.499	-0.471	2024-01-02 18:02:33.565	2
0.793	0.417	-0.361	2024-01-02 18:02:33.624	2
0.765	0.528	-0.446	2024-01-02 18:02:33.744	2
0.741	0.452	-0.39	2024-01-02 18:02:33.835	2
0.799	0.486	-0.429	2024-01-02 18:02:33.955	2
0.866	0.461	-0.426	2024-01-02 18:02:34.470	2
0.75	0.464	-0.39	2024-01-02 18:02:34.167	2
0.805	0.554	-0.427	2024-01-02 18:02:34.255	2
0.817	0.441	-0.445	2024-01-02 18:02:34.389	2
0.644	0.422	-0.369	2024-01-02 18:02:34.434	2
0.761	0.581	-0.435	2024-01-02 18:02:34.557	2
0.682	0.581	-0.417	2024-01-02 18:02:34.646	2
0.691	0.594	-0.408	2024-01-02 18:02:34.764	2
0.758	0.636	-0.412	2024-01-02 18:02:34.854	2
0.661	0.584	-0.299	2024-01-02 18:02:34.988	1
0.59	0.658	-0.446	2024-01-02 18:02:35.350	2
0.721	0.622	-0.424	2024-01-02 18:02:35.154	2
0.581	0.658	-0.365	2024-01-02 18:02:35.245	1
0.701	0.675	-0.42	2024-01-02 18:02:35.364	2
0.592	0.656	-0.442	2024-01-02 18:02:35.455	2
1.011	0.613	-0.325	2024-01-02 18:02:35.586	2
1.047	0.502	-0.133	2024-01-02 18:02:35.668	2
0.699	0.362	-0.208	2024-01-02 18:02:35.792	2
0.879	0.453	-0.318	2024-01-02 18:02:35.844	2
0.799	0.63	-0.305	2024-01-02 18:02:35.964	2
0.522	0.737	-0.231	2024-01-02 18:02:36.550	1
0.389	0.782	-0.073	2024-01-02 18:02:36.187	1
0.476	0.887	-0.179	2024-01-02 18:02:36.266	1
0.449	0.84	-0.076	2024-01-02 18:02:36.390	1
0.502	0.871	-0.075	2024-01-02 18:02:36.445	1
0.505	0.881	-0.024	2024-01-02 18:02:36.564	1
0.518	0.813	-0.04	2024-01-02 18:02:36.654	1
0.577	0.818	-0.056	2024-01-02 18:02:36.787	1
0.614	0.797	-0.047	2024-01-02 18:02:36.865	1
0.542	0.838	-0.039	2024-01-02 18:02:36.994	1
0.489	0.845	-0.078	2024-01-02 18:02:37.950	1
0.387	0.817	-0.102	2024-01-02 18:02:37.194	1
0.367	0.834	-0.142	2024-01-02 18:02:37.255	1
0.523	0.881	-0.212	2024-01-02 18:02:37.387	1
0.646	0.845	-0.151	2024-01-02 18:02:37.465	1
0.78	0.716	-0.221	2024-01-02 18:02:37.590	1
0.818	0.669	-0.279	2024-01-02 18:02:37.697	2
0.804	0.568	-0.396	2024-01-02 18:02:37.794	2
0.767	0.513	-0.347	2024-01-02 18:02:37.855	2
0.823	0.534	-0.39	2024-01-02 18:02:37.991	2
0.823	0.507	-0.388	2024-01-02 18:02:38.650	2
0.792	0.463	-0.377	2024-01-02 18:02:38.192	2
0.81	0.515	-0.397	2024-01-02 18:02:38.296	2
0.788	0.517	-0.371	2024-01-02 18:02:38.397	2
0.803	0.469	-0.371	2024-01-02 18:02:38.491	2
0.824	0.409	-0.379	2024-01-02 18:02:38.603	2
0.81	0.387	-0.377	2024-01-02 18:02:38.666	2
0.766	0.439	-0.439	2024-01-02 18:02:38.787	2
0.708	0.502	-0.501	2024-01-02 18:02:38.895	2
0.548	0.899	-0.369	2024-01-02 18:02:38.993	1
0.565	0.713	-0.456	2024-01-02 18:02:39.113	2
0.617	0.528	-0.36	2024-01-02 18:02:39.203	2
0.668	0.538	-0.422	2024-01-02 18:02:39.265	2
0.633	0.599	-0.465	2024-01-02 18:02:39.393	2
0.986	0.387	-0.564	2024-01-02 18:02:39.490	2
0.828	0.74	-0.245	2024-01-02 18:02:39.594	2
0.777	0.457	-0.287	2024-01-02 18:02:39.692	2
0.708	0.439	-0.196	2024-01-02 18:02:39.809	1
0.733	0.339	-0.278	2024-01-02 18:02:39.894	2
0.979	0.275	-0.312	2024-01-02 18:02:40.120	2
0.846	0.472	-0.424	2024-01-02 18:02:40.910	2
0.657	0.731	-0.521	2024-01-02 18:02:40.196	2
0.532	0.74	-0.351	2024-01-02 18:02:40.292	1
0.671	0.616	-0.382	2024-01-02 18:02:40.409	2
0.608	0.563	-0.366	2024-01-02 18:02:40.496	2
0.557	0.625	-0.496	2024-01-02 18:02:40.612	2
0.8	0.46	-0.477	2024-01-02 18:02:40.690	2
0.764	0.718	-0.568	2024-01-02 18:02:40.794	2
1.106	0.502	-0.127	2024-01-02 18:02:40.894	2
0.78	0.501	-0.313	2024-01-02 18:02:41.900	2
0.899	0.357	-0.381	2024-01-02 18:02:41.920	2
0.799	0.396	-0.364	2024-01-02 18:02:41.274	2
0.817	0.379	-0.448	2024-01-02 18:02:41.305	2
1.342	0.384	-0.427	2024-01-02 18:06:18.962	2
1.264	-0.093	0.146	2024-01-02 18:06:19.450	0
0.789	0.95	0.131	2024-01-02 18:06:19.165	1
0.561	-0.04	-0.028	2024-01-02 18:06:19.225	1
0.849	0.006	-0.046	2024-01-02 18:06:19.344	2
1.253	-0.08	-0.132	2024-01-02 18:06:19.435	2
1.504	-0.095	-0.027	2024-01-02 18:06:19.562	2
0.925	0.819	0.067	2024-01-02 18:06:19.645	1
0.584	0.021	0.278	2024-01-02 18:06:19.764	1
0.813	0.051	0.116	2024-01-02 18:06:19.824	1
1.236	0.017	0.125	2024-01-02 18:06:19.944	0
1.314	-0.056	0.172	2024-01-02 18:06:20.350	0
0.91	0.324	0.03	2024-01-02 18:06:20.163	1
0.797	-0.0	-0.132	2024-01-02 18:06:20.245	2
0.779	0.16	-0.021	2024-01-02 18:06:20.364	1
0.967	-0.017	-0.103	2024-01-02 18:06:20.465	2
1.087	0.168	-0.024	2024-01-02 18:06:20.574	2
0.972	0.594	0.187	2024-01-02 18:06:20.635	1
0.81	0.259	0.233	2024-01-02 18:06:20.763	1
0.841	0.021	0.071	2024-01-02 18:06:20.845	1
1.091	-0.045	0.155	2024-01-02 18:06:20.967	0
1.076	0.099	0.241	2024-01-02 18:06:21.650	0
1.071	0.438	0.071	2024-01-02 18:06:21.174	2
0.816	0.072	-0.126	2024-01-02 18:06:21.235	2
0.836	0.017	-0.042	2024-01-02 18:06:21.363	2
0.914	0.002	-0.023	2024-01-02 18:06:21.445	2
1.208	-0.11	-0.051	2024-01-02 18:06:21.576	2
1.199	0.055	-0.004	2024-01-02 18:06:21.665	2
1.036	0.271	0.306	2024-01-02 18:06:21.775	1
0.747	0.529	0.162	2024-01-02 18:06:21.874	1
0.841	0.155	0.089	2024-01-02 18:06:22.160	1
0.855	0.319	0.232	2024-01-02 18:06:22.440	1
0.899	0.231	0.235	2024-01-02 18:06:22.169	1
0.934	0.184	0.329	2024-01-02 18:06:22.283	1
1.146	0.064	0.2	2024-01-02 18:06:22.377	0
0.884	0.5	0.009	2024-01-02 18:06:22.466	1
0.872	0.094	-0.142	2024-01-02 18:06:22.584	2
1.063	0.059	-0.214	2024-01-02 18:06:22.647	2
0.864	0.055	0.02	2024-01-02 18:06:22.773	2
1.023	0.119	0.075	2024-01-02 18:06:22.881	2
0.988	0.097	0.024	2024-01-02 18:06:22.978	2
0.99	0.146	0.079	2024-01-02 18:06:23.670	2
0.977	0.071	0.062	2024-01-02 18:06:23.184	0
0.971	0.095	0.036	2024-01-02 18:06:23.279	2
0.979	0.085	0.063	2024-01-02 18:06:23.397	2
0.963	0.088	0.05	2024-01-02 18:06:23.475	2
0.987	0.082	0.042	2024-01-02 18:06:23.576	2
0.973	0.107	0.051	2024-01-02 18:06:23.670	2
0.969	0.078	0.047	2024-01-02 18:06:23.786	2
0.97	0.09	0.043	2024-01-02 18:06:23.877	2
0.992	0.109	0.048	2024-01-02 18:06:23.998	2
1.01	0.085	0.034	2024-01-02 18:06:24.760	2
0.982	0.098	0.04	2024-01-02 18:06:24.177	2
0.99	0.094	0.04	2024-01-02 18:06:24.276	2
0.99	0.087	0.039	2024-01-02 18:06:24.386	2
0.994	0.091	0.044	2024-01-02 18:06:24.491	2
1.009	0.066	0.031	2024-01-02 18:06:24.597	2
0.994	0.101	0.058	2024-01-02 18:06:24.687	2
1.007	0.083	0.033	2024-01-02 18:06:24.807	2
0.985	0.083	0.045	2024-01-02 18:06:24.868	2
0.998	0.056	0.044	2024-01-02 18:06:24.986	2
1.0	0.074	0.043	2024-01-02 18:06:25.780	2
0.989	0.081	0.048	2024-01-02 18:06:25.194	2
0.999	0.081	0.048	2024-01-02 18:06:25.288	2
0.995	0.105	0.052	2024-01-02 18:06:25.404	2
0.99	0.08	0.054	2024-01-02 18:06:25.476	2
1.004	0.089	0.046	2024-01-02 18:06:25.586	2
0.995	0.079	0.05	2024-01-02 18:06:25.677	2
0.998	0.067	0.049	2024-01-02 18:06:25.797	2
1.004	0.078	0.045	2024-01-02 18:06:25.887	2
1.0	0.079	0.043	2024-01-02 18:06:26.700	2
0.997	0.081	0.045	2024-01-02 18:06:26.970	2
0.999	0.075	0.046	2024-01-02 18:06:26.219	2
0.982	0.076	0.048	2024-01-02 18:06:26.283	2
0.998	0.079	0.05	2024-01-02 18:06:26.395	2
0.997	0.074	0.044	2024-01-02 18:06:26.487	2
0.993	0.067	0.044	2024-01-02 18:06:26.608	2
0.998	0.073	0.042	2024-01-02 18:06:26.697	2
0.99	0.074	0.046	2024-01-02 18:06:26.819	2
1.0	0.079	0.045	2024-01-02 18:06:26.874	2
0.997	0.072	0.043	2024-01-02 18:06:26.997	2
0.999	0.066	0.052	2024-01-02 18:06:27.860	2
1.005	0.074	0.047	2024-01-02 18:06:27.206	2
0.991	0.094	0.052	2024-01-02 18:06:27.297	2
0.989	0.072	0.046	2024-01-02 18:06:27.415	2
0.997	0.077	0.053	2024-01-02 18:06:27.507	2
0.989	0.081	0.063	2024-01-02 18:06:27.625	2
0.999	0.074	0.059	2024-01-02 18:06:27.687	2
1.01	0.065	0.063	2024-01-02 18:06:27.806	0
1.0	0.073	0.06	2024-01-02 18:06:27.897	2
1.0	0.075	0.064	2024-01-02 18:06:28.170	2
0.993	0.064	0.054	2024-01-02 18:06:28.108	2
0.997	0.064	0.055	2024-01-02 18:06:28.229	2
0.998	0.06	0.048	2024-01-02 18:06:28.287	2
0.986	0.064	0.056	2024-01-02 18:06:28.407	2
0.999	0.058	0.054	2024-01-02 18:06:28.498	2
1.001	0.063	0.057	2024-01-02 18:06:28.618	2
0.996	0.061	0.065	2024-01-02 18:06:28.707	0
0.998	0.056	0.059	2024-01-02 18:06:28.828	0
0.999	0.069	0.063	2024-01-02 18:06:28.918	0
0.983	0.08	0.062	2024-01-02 18:06:29.390	2
1.0	0.048	0.061	2024-01-02 18:06:29.970	0
0.983	0.058	0.063	2024-01-02 18:06:29.219	0
1.008	0.059	0.065	2024-01-02 18:06:29.308	0
1.007	0.058	0.065	2024-01-02 18:06:29.424	0
1.003	0.073	0.081	2024-01-02 18:06:29.516	0
0.994	0.066	0.062	2024-01-02 18:06:29.639	0
0.986	0.059	0.062	2024-01-02 18:06:29.697	0
0.987	0.065	0.068	2024-01-02 18:06:29.818	0
0.995	0.052	0.051	2024-01-02 18:06:29.907	2
0.997	0.058	0.056	2024-01-02 18:06:30.280	2
0.999	0.07	0.057	2024-01-02 18:06:30.117	2
1.01	0.069	0.054	2024-01-02 18:06:30.239	2
0.996	0.074	0.057	2024-01-02 18:06:30.328	2
0.998	0.065	0.06	2024-01-02 18:06:30.454	2
0.981	0.07	0.061	2024-01-02 18:06:30.506	0
0.992	0.082	0.057	2024-01-02 18:06:30.627	2
0.999	0.083	0.064	2024-01-02 18:06:30.717	2
0.989	0.067	0.053	2024-01-02 18:06:30.839	2
1.005	0.071	0.055	2024-01-02 18:06:30.928	2
1.005	0.073	0.049	2024-01-02 18:06:31.490	2
0.994	0.063	0.052	2024-01-02 18:06:31.107	2
1.006	0.055	0.045	2024-01-02 18:06:31.227	2
0.982	0.061	0.045	2024-01-02 18:06:31.317	2
0.994	0.067	0.053	2024-01-02 18:06:31.439	2
1.0	0.056	0.053	2024-01-02 18:06:31.527	2
0.99	0.064	0.062	2024-01-02 18:06:31.650	0
0.996	0.059	0.054	2024-01-02 18:06:31.739	2
1.002	0.06	0.059	2024-01-02 18:06:31.873	0
0.989	0.079	0.057	2024-01-02 18:06:31.919	2
0.998	0.057	0.05	2024-01-02 18:06:32.390	2
0.991	0.06	0.051	2024-01-02 18:06:32.128	2
0.998	0.065	0.061	2024-01-02 18:06:32.248	0
1.002	0.06	0.063	2024-01-02 18:06:32.339	0
0.992	0.056	0.06	2024-01-02 18:06:32.470	0
1.001	0.061	0.066	2024-01-02 18:06:32.517	0
0.996	0.063	0.057	2024-01-02 18:06:32.638	2
0.998	0.074	0.063	2024-01-02 18:06:32.727	2
0.999	0.064	0.055	2024-01-02 18:06:32.853	2
0.993	0.068	0.059	2024-01-02 18:06:32.939	2
1.0	0.07	0.064	2024-01-02 18:06:33.730	0
0.995	0.079	0.055	2024-01-02 18:06:33.149	2
0.994	0.079	0.068	2024-01-02 18:06:33.268	0
0.997	0.062	0.057	2024-01-02 18:06:33.325	2
0.991	0.057	0.058	2024-01-02 18:06:33.447	0
0.997	0.064	0.059	2024-01-02 18:06:33.538	2
1.004	0.064	0.062	2024-01-02 18:06:33.671	0
0.989	0.064	0.061	2024-01-02 18:06:33.749	0
0.998	0.055	0.063	2024-01-02 18:06:33.876	0
0.997	0.066	0.063	2024-01-02 18:06:33.928	0
1.0	0.081	0.061	2024-01-02 18:06:34.450	2
0.991	0.07	0.059	2024-01-02 18:06:34.137	2
0.982	0.068	0.062	2024-01-02 18:06:34.277	0
0.979	0.082	0.07	2024-01-02 18:06:34.345	0
0.991	0.055	0.052	2024-01-02 18:06:34.466	2
1.016	0.083	0.057	2024-01-02 18:06:34.582	2
0.992	0.092	0.063	2024-01-02 18:06:34.678	2
0.993	0.078	0.059	2024-01-02 18:06:34.737	2
0.985	0.089	0.062	2024-01-02 18:06:34.868	2
0.99	0.078	0.056	2024-01-02 18:06:34.947	2
0.984	0.075	0.069	2024-01-02 18:06:35.760	0
1.008	0.092	0.062	2024-01-02 18:06:35.183	2
0.998	0.085	0.07	2024-01-02 18:06:35.275	0
0.996	0.085	0.063	2024-01-02 18:06:35.336	2
0.998	0.079	0.064	2024-01-02 18:06:35.476	2
0.989	0.074	0.064	2024-01-02 18:06:35.549	0
0.994	0.079	0.061	2024-01-02 18:06:35.671	2
1.029	0.055	0.06	2024-01-02 18:06:35.783	0
0.993	0.05	0.057	2024-01-02 18:06:35.878	0
0.997	0.059	0.061	2024-01-02 18:06:35.979	0
1.004	0.078	0.075	2024-01-02 18:06:36.870	0
0.993	0.079	0.063	2024-01-02 18:06:36.148	2
0.994	0.062	0.061	2024-01-02 18:06:36.278	0
0.986	0.062	0.059	2024-01-02 18:06:36.383	0
0.997	0.081	0.063	2024-01-02 18:06:36.476	2
1.002	0.065	0.061	2024-01-02 18:06:36.579	0
0.988	0.068	0.06	2024-01-02 18:06:36.687	2
0.995	0.075	0.06	2024-01-02 18:06:36.751	2
1.004	0.086	0.062	2024-01-02 18:06:36.877	2
0.987	0.1	0.066	2024-01-02 18:06:36.984	2
0.99	0.085	0.061	2024-01-02 18:06:37.780	2
0.982	0.087	0.061	2024-01-02 18:06:37.175	2
0.998	0.091	0.061	2024-01-02 18:06:37.288	2
1.0	0.085	0.061	2024-01-02 18:06:37.377	2
0.987	0.081	0.057	2024-01-02 18:06:37.497	2
0.999	0.083	0.061	2024-01-02 18:06:37.571	2
0.992	0.092	0.06	2024-01-02 18:06:37.677	2
0.996	0.105	0.069	2024-01-02 18:06:37.770	2
0.996	0.084	0.063	2024-01-02 18:06:37.887	2
0.984	0.08	0.059	2024-01-02 18:06:37.980	2
0.996	0.093	0.063	2024-01-02 18:06:38.970	2
1.004	0.085	0.062	2024-01-02 18:06:38.168	2
0.996	0.089	0.063	2024-01-02 18:06:38.281	2
1.006	0.082	0.062	2024-01-02 18:06:38.379	2
0.991	0.091	0.063	2024-01-02 18:06:38.486	2
0.995	0.092	0.059	2024-01-02 18:06:38.577	2
1.001	0.085	0.064	2024-01-02 18:06:38.697	2
0.984	0.077	0.056	2024-01-02 18:06:38.787	2
0.998	0.085	0.059	2024-01-02 18:06:38.908	2
1.003	0.087	0.063	2024-01-02 18:06:38.969	2
0.995	0.081	0.061	2024-01-02 18:06:39.870	2
0.99	0.068	0.055	2024-01-02 18:06:39.182	2
0.993	0.082	0.063	2024-01-02 18:06:39.295	2
0.997	0.089	0.061	2024-01-02 18:06:39.386	2
1.006	0.078	0.06	2024-01-02 18:06:39.507	2
0.996	0.075	0.063	2024-01-02 18:06:39.579	2
0.998	0.074	0.062	2024-01-02 18:06:39.687	2
0.997	0.085	0.065	2024-01-02 18:06:39.777	2
0.989	0.081	0.059	2024-01-02 18:06:39.897	2
1.002	0.06	0.059	2024-01-02 18:06:39.987	0
0.992	0.07	0.06	2024-01-02 18:06:40.107	2
1.002	0.078	0.068	2024-01-02 18:06:40.197	0
1.013	0.075	0.063	2024-01-02 18:06:40.318	2
0.99	0.11	0.095	2024-01-02 18:06:40.377	0
1.009	0.118	0.097	2024-01-02 18:06:40.497	0
1.023	0.098	0.042	2024-01-02 18:06:40.587	2
0.976	0.071	0.012	2024-01-02 18:06:40.707	2
1.056	0.06	0.038	2024-01-02 18:06:40.797	2
0.912	0.131	0.035	2024-01-02 18:06:40.917	2
0.864	0.089	0.098	2024-01-02 18:06:40.975	1
1.077	0.055	0.034	2024-01-02 18:06:41.970	2
0.955	0.083	0.114	2024-01-02 18:06:41.187	0
1.014	0.091	0.058	2024-01-02 18:06:41.304	2
1.023	0.087	0.064	2024-01-02 18:06:41.394	2
0.985	0.117	0.046	2024-01-02 18:06:41.514	2
1.032	0.064	0.116	2024-01-02 18:06:41.604	0
1.019	0.028	0.012	2024-01-02 18:06:41.725	2
1.016	0.091	0.104	2024-01-02 18:06:41.784	0
1.006	0.054	0.072	2024-01-02 18:06:41.904	0
0.996	0.016	0.025	2024-01-02 18:06:41.994	2
1.009	0.059	0.084	2024-01-02 18:06:42.115	0
0.972	0.041	0.062	2024-01-02 18:06:42.204	0
0.994	0.059	0.068	2024-01-02 18:06:42.325	0
0.993	0.038	0.057	2024-01-02 18:06:42.384	0
0.993	0.046	0.064	2024-01-02 18:06:42.504	0
1.004	0.053	0.059	2024-01-02 18:06:42.594	0
0.999	0.064	0.068	2024-01-02 18:06:42.714	0
0.995	0.064	0.064	2024-01-02 18:06:42.807	0
0.995	0.05	0.069	2024-01-02 18:06:42.925	0
0.99	0.059	0.074	2024-01-02 18:06:43.170	0
0.996	0.07	0.066	2024-01-02 18:06:43.135	0
1.0	0.053	0.069	2024-01-02 18:06:43.195	0
0.995	0.051	0.064	2024-01-02 18:06:43.316	0
1.008	0.056	0.063	2024-01-02 18:06:43.405	0
0.993	0.073	0.072	2024-01-02 18:06:43.525	0
0.994	0.057	0.063	2024-01-02 18:06:43.616	0
0.996	0.048	0.058	2024-01-02 18:06:43.735	0
0.984	0.046	0.057	2024-01-02 18:06:43.794	0
0.995	0.074	0.072	2024-01-02 18:06:43.916	0
0.996	0.049	0.065	2024-01-02 18:06:44.500	0
0.995	0.037	0.072	2024-01-02 18:06:44.125	0
1.005	0.047	0.074	2024-01-02 18:06:44.215	0
0.988	0.06	0.065	2024-01-02 18:06:44.334	0
0.984	0.058	0.063	2024-01-02 18:06:44.426	0
0.998	0.061	0.08	2024-01-02 18:06:44.545	0
1.002	0.052	0.068	2024-01-02 18:06:44.604	0
1.005	0.054	0.062	2024-01-02 18:06:44.725	0
1.016	0.061	0.063	2024-01-02 18:06:45.173	0
0.985	0.047	0.052	2024-01-02 18:06:45.173	2
0.998	0.071	0.059	2024-01-02 18:06:45.173	2
0.986	0.063	0.06	2024-01-02 18:06:45.173	0
0.998	0.069	0.044	2024-01-02 18:06:45.204	2
1.001	0.069	0.052	2024-01-02 18:06:45.327	2
0.996	0.049	0.041	2024-01-02 18:06:45.417	2
1.006	0.061	0.049	2024-01-02 18:06:45.537	2
1.005	0.069	0.061	2024-01-02 18:06:45.627	2
0.986	0.055	0.062	2024-01-02 18:06:45.746	0
1.005	0.057	0.064	2024-01-02 18:06:45.836	0
0.99	0.065	0.049	2024-01-02 18:06:45.975	2
0.992	0.09	0.063	2024-01-02 18:06:46.170	2
0.992	0.066	0.055	2024-01-02 18:06:46.137	2
0.981	0.064	0.057	2024-01-02 18:06:46.228	2
1.002	0.065	0.052	2024-01-02 18:06:46.347	2
0.992	0.08	0.041	2024-01-02 18:06:46.435	2
0.996	0.083	0.034	2024-01-02 18:06:46.577	2
0.995	0.072	0.038	2024-01-02 18:06:46.617	2
0.993	0.072	0.04	2024-01-02 18:06:46.738	2
1.001	0.076	0.044	2024-01-02 18:06:46.827	2
0.996	0.069	0.043	2024-01-02 18:06:46.946	2
0.997	0.067	0.047	2024-01-02 18:06:47.390	2
0.999	0.07	0.048	2024-01-02 18:06:47.170	2
0.998	0.071	0.045	2024-01-02 18:06:47.247	2
0.991	0.07	0.04	2024-01-02 18:06:47.371	2
1.004	0.058	0.049	2024-01-02 18:06:47.429	2
0.997	0.061	0.045	2024-01-02 18:06:47.552	2
1.002	0.063	0.044	2024-01-02 18:06:47.638	2
1.0	0.056	0.043	2024-01-02 18:06:47.771	2
1.007	0.069	0.055	2024-01-02 18:06:47.847	2
1.0	0.061	0.05	2024-01-02 18:06:47.970	2
0.99	0.059	0.045	2024-01-02 18:06:48.270	2
0.997	0.073	0.056	2024-01-02 18:06:48.149	2
0.999	0.076	0.063	2024-01-02 18:06:48.239	2
0.995	0.056	0.044	2024-01-02 18:06:48.376	2
0.988	0.05	0.004	2024-01-02 18:06:48.448	2
1.008	0.038	0.01	2024-01-02 18:06:48.577	2
1.0	0.058	0.063	2024-01-02 18:06:48.671	0
1.0	0.054	0.034	2024-01-02 18:06:48.777	2
0.985	0.065	0.054	2024-01-02 18:06:48.839	2
1.01	0.058	0.045	2024-01-02 18:06:48.980	2
0.992	0.053	0.048	2024-01-02 18:06:49.490	2
1.007	0.045	0.046	2024-01-02 18:06:49.172	2
0.994	0.05	0.039	2024-01-02 18:06:49.274	2
1.008	0.058	0.042	2024-01-02 18:06:49.378	2
0.998	0.052	0.036	2024-01-02 18:06:49.435	2
1.0	0.051	0.032	2024-01-02 18:06:49.571	2
0.979	0.057	0.034	2024-01-02 18:06:49.648	2
0.995	0.083	0.048	2024-01-02 18:06:49.774	2
1.003	0.063	0.041	2024-01-02 18:06:49.875	2
1.002	0.063	0.039	2024-01-02 18:06:49.976	2
1.003	0.077	0.042	2024-01-02 18:06:50.740	2
0.992	0.064	0.042	2024-01-02 18:06:50.187	2
0.999	0.074	0.029	2024-01-02 18:06:50.248	2
0.999	0.063	0.039	2024-01-02 18:06:50.373	2
0.992	0.063	0.041	2024-01-02 18:06:50.455	2
0.995	0.074	0.048	2024-01-02 18:06:50.577	2
0.996	0.065	0.035	2024-01-02 18:06:50.667	2
0.989	0.061	0.046	2024-01-02 18:06:50.787	2
1.0	0.073	0.045	2024-01-02 18:06:50.846	2
0.996	0.077	0.031	2024-01-02 18:06:50.978	2
0.995	0.078	0.034	2024-01-02 18:06:51.870	2
1.004	0.06	0.027	2024-01-02 18:06:51.181	2
0.988	0.063	0.036	2024-01-02 18:06:51.271	2
1.0	0.077	0.037	2024-01-02 18:06:51.387	2
1.004	0.072	0.038	2024-01-02 18:06:51.482	2
0.989	0.071	0.038	2024-01-02 18:06:51.597	2
1.002	0.067	0.043	2024-01-02 18:06:51.658	2
0.985	0.083	0.042	2024-01-02 18:06:51.778	2
1.0	0.073	0.032	2024-01-02 18:06:51.879	2
1.0	0.064	0.034	2024-01-02 18:06:51.987	2
0.991	0.057	0.041	2024-01-02 18:06:52.760	2
0.999	0.068	0.041	2024-01-02 18:06:52.196	2
0.986	0.07	0.048	2024-01-02 18:06:52.282	2
0.99	0.071	0.054	2024-01-02 18:06:52.383	2
1.008	0.056	0.047	2024-01-02 18:06:52.483	2
0.994	0.083	0.066	2024-01-02 18:06:52.586	2
1.0	0.064	0.045	2024-01-02 18:06:52.677	2
1.006	0.072	0.053	2024-01-02 18:06:52.796	2
0.998	0.076	0.047	2024-01-02 18:06:52.884	2
0.993	0.072	0.051	2024-01-02 18:06:53.600	2
0.989	0.081	0.052	2024-01-02 18:06:53.800	2
0.989	0.088	0.049	2024-01-02 18:06:53.187	2
0.991	0.07	0.043	2024-01-02 18:06:53.295	2
0.99	0.067	0.044	2024-01-02 18:06:53.397	2
0.997	0.079	0.042	2024-01-02 18:06:53.487	2
0.99	0.075	0.04	2024-01-02 18:06:53.608	2
1.01	0.075	0.038	2024-01-02 18:06:53.678	2
1.003	0.073	0.038	2024-01-02 18:06:53.788	2
0.989	0.083	0.043	2024-01-02 18:06:53.877	2
1.001	0.083	0.044	2024-01-02 18:06:53.997	2
1.001	0.065	0.043	2024-01-02 18:06:54.860	2
1.002	0.072	0.042	2024-01-02 18:06:54.208	2
0.995	0.075	0.041	2024-01-02 18:06:54.297	2
0.997	0.07	0.039	2024-01-02 18:06:54.417	2
0.991	0.082	0.042	2024-01-02 18:06:54.477	2
0.986	0.07	0.042	2024-01-02 18:06:54.597	2
0.991	0.073	0.042	2024-01-02 18:06:54.686	2
0.994	0.076	0.031	2024-01-02 18:06:54.807	2
1.013	0.072	0.049	2024-01-02 18:06:54.896	2
0.994	0.071	0.045	2024-01-02 18:06:55.170	2
0.993	0.08	0.051	2024-01-02 18:06:55.780	2
0.989	0.072	0.048	2024-01-02 18:06:55.197	2
0.992	0.083	0.049	2024-01-02 18:06:55.287	2
1.0	0.067	0.043	2024-01-02 18:06:55.407	2
0.993	0.076	0.041	2024-01-02 18:06:55.497	2
1.004	0.079	0.033	2024-01-02 18:06:55.618	2
1.005	0.08	0.04	2024-01-02 18:06:55.708	2
0.999	0.076	0.037	2024-01-02 18:06:55.831	2
0.998	0.081	0.045	2024-01-02 18:06:55.887	2
0.986	0.084	0.044	2024-01-02 18:06:56.700	2
0.991	0.096	0.046	2024-01-02 18:06:56.970	2
0.992	0.07	0.033	2024-01-02 18:06:56.216	2
0.99	0.074	0.042	2024-01-02 18:06:56.308	2
1.006	0.081	0.04	2024-01-02 18:06:56.427	2
1.005	0.078	0.037	2024-01-02 18:06:56.487	2
0.991	0.072	0.047	2024-01-02 18:06:56.607	2
0.998	0.066	0.051	2024-01-02 18:06:56.697	2
0.989	0.071	0.049	2024-01-02 18:06:56.817	2
0.989	0.083	0.054	2024-01-02 18:06:56.908	2
1.009	0.062	0.052	2024-01-02 18:06:57.270	2
0.992	0.075	0.051	2024-01-02 18:06:57.117	2
1.014	0.075	0.052	2024-01-02 18:06:57.238	2
0.998	0.074	0.051	2024-01-02 18:06:57.296	2
0.99	0.075	0.049	2024-01-02 18:06:57.418	2
0.994	0.09	0.068	2024-01-02 18:06:57.506	2
0.986	0.098	0.071	2024-01-02 18:06:57.628	2
1.003	0.071	0.027	2024-01-02 18:06:57.717	2
0.98	0.042	-0.002	2024-01-02 18:06:57.838	2
1.0	0.054	0.05	2024-01-02 18:06:57.894	2
1.014	0.109	0.093	2024-01-02 18:06:58.180	0
0.998	0.079	0.053	2024-01-02 18:06:58.106	2
0.998	0.083	0.074	2024-01-02 18:06:58.228	0
0.995	0.073	0.067	2024-01-02 18:06:58.316	0
0.979	0.08	0.062	2024-01-02 18:06:58.445	2
0.993	0.086	0.058	2024-01-02 18:06:58.527	2
1.004	0.077	0.054	2024-01-02 18:06:58.648	2
0.993	0.068	0.056	2024-01-02 18:06:58.703	2
0.995	0.063	0.062	2024-01-02 18:06:58.827	0
0.997	0.074	0.064	2024-01-02 18:06:58.916	0
1.001	0.083	0.059	2024-01-02 18:06:59.370	2
1.006	0.064	0.047	2024-01-02 18:06:59.128	2
0.999	0.062	0.045	2024-01-02 18:06:59.263	2
1.009	0.08	0.053	2024-01-02 18:06:59.306	2
1.008	0.076	0.058	2024-01-02 18:06:59.427	2
0.987	0.072	0.042	2024-01-02 18:06:59.516	2
0.987	0.082	0.061	2024-01-02 18:06:59.637	2
0.978	0.088	0.059	2024-01-02 18:06:59.726	2
0.985	0.083	0.035	2024-01-02 18:06:59.847	2
1.001	0.067	0.041	2024-01-02 18:06:59.936	2
0.987	0.067	0.038	2024-01-02 18:07:00.570	2
1.003	0.072	0.039	2024-01-02 18:07:00.118	2
1.004	0.08	0.051	2024-01-02 18:07:00.237	2
0.987	0.08	0.048	2024-01-02 18:07:00.326	2
0.993	0.079	0.061	2024-01-02 18:07:00.456	2
0.988	0.077	0.061	2024-01-02 18:07:00.537	2
0.998	0.082	0.06	2024-01-02 18:07:00.676	2
1.002	0.062	0.043	2024-01-02 18:07:00.718	2
1.001	0.067	0.054	2024-01-02 18:07:00.849	2
0.995	0.063	0.046	2024-01-02 18:07:00.928	2
0.995	0.056	0.042	2024-01-02 18:07:01.470	2
0.996	0.091	0.051	2024-01-02 18:07:01.136	2
1.001	0.066	0.042	2024-01-02 18:07:01.268	2
0.997	0.069	0.042	2024-01-02 18:07:01.347	2
1.0	0.056	0.027	2024-01-02 18:07:01.479	2
1.0	0.069	0.054	2024-01-02 18:07:01.528	2
1.01	0.074	0.042	2024-01-02 18:07:01.654	2
0.994	0.062	0.021	2024-01-02 18:07:01.738	2
1.002	0.091	0.062	2024-01-02 18:07:01.856	2
0.962	0.103	0.041	2024-01-02 18:07:01.945	2
1.001	0.055	0.047	2024-01-02 18:07:02.730	2
0.997	0.084	0.026	2024-01-02 18:07:02.128	2
0.995	0.082	0.031	2024-01-02 18:07:02.248	2
1.014	0.057	0.042	2024-01-02 18:07:02.338	2
1.003	0.074	0.032	2024-01-02 18:07:02.457	2
1.003	0.073	0.038	2024-01-02 18:07:02.548	2
0.994	0.068	0.035	2024-01-02 18:07:02.673	2
0.996	0.079	0.044	2024-01-02 18:07:02.756	2
0.997	0.057	0.036	2024-01-02 18:07:02.882	2
0.997	0.065	0.042	2024-01-02 18:07:02.938	2
0.99	0.058	0.037	2024-01-02 18:07:03.790	2
1.005	0.063	0.044	2024-01-02 18:07:03.149	2
0.991	0.064	0.043	2024-01-02 18:07:03.272	2
1.003	0.065	0.049	2024-01-02 18:07:03.383	2
0.985	0.072	0.043	2024-01-02 18:07:03.482	2
1.0	0.08	0.042	2024-01-02 18:07:03.538	2
0.999	0.067	0.035	2024-01-02 18:07:03.677	2
0.985	0.06	0.042	2024-01-02 18:07:03.749	2
1.007	0.069	0.038	2024-01-02 18:07:03.876	2
1.002	0.083	0.04	2024-01-02 18:07:03.957	2
0.993	0.077	0.035	2024-01-02 18:07:04.830	2
0.993	0.067	0.038	2024-01-02 18:07:04.180	2
0.983	0.068	0.036	2024-01-02 18:07:04.287	2
1.0	0.069	0.031	2024-01-02 18:07:04.349	2
1.006	0.056	0.027	2024-01-02 18:07:04.478	2
0.994	0.052	0.025	2024-01-02 18:07:04.580	2
0.998	0.06	0.035	2024-01-02 18:07:04.681	2
1.0	0.058	0.036	2024-01-02 18:07:04.774	2
0.99	0.069	0.042	2024-01-02 18:07:04.886	2
0.992	0.055	0.046	2024-01-02 18:07:04.948	2
0.997	0.054	0.035	2024-01-02 18:07:05.740	2
1.003	0.054	0.04	2024-01-02 18:07:05.156	2
1.007	0.058	0.037	2024-01-02 18:07:05.280	2
1.03	0.057	0.042	2024-01-02 18:07:05.376	2
0.994	0.04	0.054	2024-01-02 18:07:05.484	0
0.983	0.048	0.042	2024-01-02 18:07:05.584	2
1.002	0.043	0.044	2024-01-02 18:07:05.696	2
1.011	0.061	0.048	2024-01-02 18:07:05.781	2
0.993	0.054	0.041	2024-01-02 18:07:05.880	2
1.004	0.061	0.043	2024-01-02 18:07:05.973	2
0.993	0.061	0.046	2024-01-02 18:07:06.870	2
1.005	0.062	0.033	2024-01-02 18:07:06.180	2
0.99	0.059	0.042	2024-01-02 18:07:06.296	2
0.987	0.059	0.042	2024-01-02 18:07:06.379	2
1.0	0.074	0.044	2024-01-02 18:07:06.481	2
1.006	0.06	0.043	2024-01-02 18:07:06.575	2
0.996	0.058	0.043	2024-01-02 18:07:06.688	2
0.979	0.061	0.039	2024-01-02 18:07:06.784	2
1.001	0.076	0.036	2024-01-02 18:07:06.897	2
0.992	0.104	0.051	2024-01-02 18:07:06.986	2
0.99	0.058	0.039	2024-01-02 18:07:07.107	2
0.994	0.065	0.043	2024-01-02 18:07:07.177	2
0.999	0.087	0.043	2024-01-02 18:07:07.286	2
1.006	0.068	0.036	2024-01-02 18:07:07.383	2
0.998	0.07	0.035	2024-01-02 18:07:07.498	2
1.0	0.062	0.031	2024-01-02 18:07:07.587	2
0.996	0.064	0.031	2024-01-02 18:07:07.707	2
0.993	0.083	0.04	2024-01-02 18:07:07.775	2
0.994	0.072	0.039	2024-01-02 18:07:07.887	2
0.992	0.065	0.031	2024-01-02 18:07:07.984	2
1.009	0.073	0.031	2024-01-02 18:07:08.970	2
1.0	0.083	0.035	2024-01-02 18:07:08.186	2
0.978	0.062	0.025	2024-01-02 18:07:08.309	2
0.977	0.076	0.036	2024-01-02 18:07:08.397	2
0.975	0.061	0.042	2024-01-02 18:07:08.518	2
1.021	0.085	0.04	2024-01-02 18:07:08.586	2
1.021	0.078	0.028	2024-01-02 18:07:08.696	2
1.008	0.088	0.029	2024-01-02 18:07:08.786	2
1.005	0.063	0.014	2024-01-02 18:07:08.906	2
0.99	0.047	0.017	2024-01-02 18:07:08.998	2
1.003	0.031	0.02	2024-01-02 18:07:09.115	2
1.01	0.057	0.026	2024-01-02 18:07:09.178	2
0.992	0.052	0.026	2024-01-02 18:07:09.293	2
0.992	0.054	0.027	2024-01-02 18:07:09.386	2
0.996	0.045	0.029	2024-01-02 18:07:09.507	2
0.985	0.051	0.031	2024-01-02 18:07:09.597	2
1.0	0.064	0.032	2024-01-02 18:07:09.717	2
1.005	0.07	0.025	2024-01-02 18:07:09.807	2
0.992	0.076	0.03	2024-01-02 18:07:09.928	2
0.996	0.057	0.026	2024-01-02 18:07:09.986	2
0.993	0.069	0.024	2024-01-02 18:07:10.104	2
0.989	0.082	0.033	2024-01-02 18:07:10.196	2
1.009	0.064	0.027	2024-01-02 18:07:10.317	2
0.992	0.075	0.029	2024-01-02 18:07:10.407	2
1.002	0.072	0.031	2024-01-02 18:07:10.528	2
0.999	0.079	0.03	2024-01-02 18:07:10.586	2
0.995	0.094	0.028	2024-01-02 18:07:10.706	2
0.998	0.073	0.023	2024-01-02 18:07:10.796	2
0.984	0.064	0.016	2024-01-02 18:07:10.914	2
1.001	0.068	0.022	2024-01-02 18:07:11.700	2
1.006	0.058	0.022	2024-01-02 18:07:11.127	2
1.003	0.065	0.031	2024-01-02 18:07:11.217	2
0.997	0.059	0.03	2024-01-02 18:07:11.337	2
0.998	0.067	0.038	2024-01-02 18:07:11.394	2
1.0	0.072	0.033	2024-01-02 18:07:11.516	2
1.006	0.057	0.031	2024-01-02 18:07:11.607	2
1.006	0.064	0.036	2024-01-02 18:07:11.726	2
1.007	0.084	0.028	2024-01-02 18:07:11.817	2
1.002	0.081	0.031	2024-01-02 18:07:11.937	2
0.99	0.079	0.04	2024-01-02 18:07:11.996	2
0.993	0.07	0.032	2024-01-02 18:07:12.116	2
0.989	0.073	0.037	2024-01-02 18:07:12.206	2
0.998	0.087	0.035	2024-01-02 18:07:12.327	2
1.014	0.079	0.034	2024-01-02 18:07:12.419	2
0.997	0.067	0.031	2024-01-02 18:07:12.537	2
1.017	0.112	0.038	2024-01-02 18:07:12.628	2
0.992	0.124	0.055	2024-01-02 18:07:12.747	2
0.986	0.105	0.048	2024-01-02 18:07:12.804	2
0.992	0.129	0.053	2024-01-02 18:07:12.927	2
0.955	0.155	0.061	2024-01-02 18:07:13.160	2
0.968	0.134	0.046	2024-01-02 18:07:13.136	2
1.008	0.155	0.049	2024-01-02 18:07:13.228	2
0.976	0.187	0.058	2024-01-02 18:07:13.347	2
1.006	0.173	0.053	2024-01-02 18:07:13.405	2
1.046	0.213	0.067	2024-01-02 18:07:13.528	2
0.975	0.269	0.071	2024-01-02 18:07:13.617	2
0.982	0.176	0.06	2024-01-02 18:07:13.738	2
0.981	0.204	0.045	2024-01-02 18:07:13.828	2
0.995	0.206	0.017	2024-01-02 18:07:13.948	2
1.009	0.199	0.014	2024-01-02 18:07:14.380	2
1.012	0.216	0.031	2024-01-02 18:07:14.157	2
1.014	0.199	0.038	2024-01-02 18:07:14.217	2
0.994	0.199	0.032	2024-01-02 18:07:14.339	2
1.014	0.187	0.024	2024-01-02 18:07:14.425	2
0.997	0.198	-0.005	2024-01-02 18:07:14.545	2
0.98	0.165	-0.015	2024-01-02 18:07:14.638	2
0.985	0.151	-0.055	2024-01-02 18:07:14.757	2
1.039	0.111	-0.091	2024-01-02 18:07:14.818	2
0.957	0.146	-0.072	2024-01-02 18:07:14.938	2
1.002	0.127	-0.059	2024-01-02 18:07:15.270	2
1.045	0.208	0.039	2024-01-02 18:07:15.148	2
0.992	0.06	0.193	2024-01-02 18:07:15.239	0
0.973	0.16	0.029	2024-01-02 18:07:15.358	2
0.965	0.078	0.098	2024-01-02 18:07:15.449	0
1.101	0.019	0.099	2024-01-02 18:07:15.584	0
5.258	0.077	0.177	2024-01-02 18:07:15.628	2
0.87	2.132	0.155	2024-01-02 18:07:15.748	1
0.602	0.238	-0.154	2024-01-02 18:07:15.839	1
0.784	0.192	0.052	2024-01-02 18:07:15.957	1
1.104	0.128	0.05	2024-01-02 18:07:16.490	2
1.22	0.061	-0.071	2024-01-02 18:07:16.186	2
1.229	-0.109	-0.094	2024-01-02 18:07:16.228	2
0.893	0.934	0.135	2024-01-02 18:07:16.349	1
0.423	0.17	0.042	2024-01-02 18:07:16.436	1
1.035	0.009	-0.014	2024-01-02 18:07:16.558	2
1.26	0.006	0.188	2024-01-02 18:07:16.649	0
1.329	-0.021	0.125	2024-01-02 18:07:16.784	0
0.739	1.017	0.142	2024-01-02 18:07:16.858	1
0.524	0.098	0.009	2024-01-02 18:07:16.985	1
0.992	0.077	-0.046	2024-01-02 18:07:17.350	2
1.291	-0.165	-0.154	2024-01-02 18:07:17.183	2
1.456	0.021	-0.088	2024-01-02 18:07:17.247	2
0.69	0.805	0.373	2024-01-02 18:07:17.391	1
0.455	0.119	0.007	2024-01-02 18:07:17.458	1
1.172	-0.063	0.101	2024-01-02 18:07:17.585	0
1.406	-0.062	0.172	2024-01-02 18:07:17.682	0
1.18	0.192	0.024	2024-01-02 18:07:17.758	2
0.536	0.586	0.03	2024-01-02 18:07:17.848	1
0.814	0.09	-0.029	2024-01-02 18:07:17.985	2
1.145	-0.063	-0.136	2024-01-02 18:07:18.570	2
1.526	-0.158	-0.098	2024-01-02 18:07:18.182	2
0.948	1.007	0.006	2024-01-02 18:07:18.286	1
0.395	0.191	0.147	2024-01-02 18:07:18.383	1
0.856	0.059	0.066	2024-01-02 18:07:18.447	1
1.376	-0.034	0.144	2024-01-02 18:07:18.585	0
1.168	-0.04	0.168	2024-01-02 18:07:18.657	0
0.899	0.826	0.25	2024-01-02 18:07:18.790	1
0.492	0.104	0.019	2024-01-02 18:07:18.882	1
0.85	0.035	-0.06	2024-01-02 18:07:18.987	2
1.175	-0.09	-0.156	2024-01-02 18:07:19.570	2
1.745	-0.069	-0.046	2024-01-02 18:07:19.183	2
0.712	1.159	0.263	2024-01-02 18:07:19.257	1
0.503	0.017	0.087	2024-01-02 18:07:19.378	1
0.923	0.02	0.094	2024-01-02 18:07:19.482	0
1.412	-0.07	0.136	2024-01-02 18:07:19.586	0
1.457	-0.154	0.077	2024-01-02 18:07:19.677	0
0.649	0.955	0.202	2024-01-02 18:07:19.797	1
0.608	-0.074	-0.033	2024-01-02 18:07:19.858	1
1.038	0.054	-0.055	2024-01-02 18:07:19.976	2
1.288	-0.182	-0.135	2024-01-02 18:07:20.850	2
1.571	-0.098	-0.005	2024-01-02 18:07:20.188	2
0.561	0.862	0.363	2024-01-02 18:07:20.278	1
0.614	0.009	0.046	2024-01-02 18:07:20.397	1
1.25	-0.053	0.103	2024-01-02 18:07:20.458	0
1.209	-0.032	0.189	2024-01-02 18:07:20.638	0
1.335	-0.179	0.066	2024-01-02 18:07:20.672	0
0.78	0.902	0.22	2024-01-02 18:07:20.786	1
0.643	-0.03	-0.091	2024-01-02 18:07:20.882	1
0.906	0.041	-0.066	2024-01-02 18:07:20.997	2
1.465	-0.143	-0.097	2024-01-02 18:07:21.870	2
1.35	-0.017	0.045	2024-01-02 18:07:21.229	2
0.704	0.611	0.158	2024-01-02 18:07:21.279	1
0.627	0.057	0.083	2024-01-02 18:07:21.387	1
1.06	-0.013	0.105	2024-01-02 18:07:21.487	0
1.294	-0.081	0.175	2024-01-02 18:07:21.598	0
1.33	-0.007	-0.017	2024-01-02 18:07:21.687	2
0.772	0.918	0.143	2024-01-02 18:07:21.806	1
0.557	-0.065	-0.104	2024-01-02 18:07:21.878	1
1.016	0.048	-0.024	2024-01-02 18:07:21.987	2
1.413	-0.065	-0.084	2024-01-02 18:07:22.820	2
1.162	-0.075	-0.055	2024-01-02 18:07:22.196	2
0.82	0.838	0.043	2024-01-02 18:07:22.288	1
0.608	0.107	0.069	2024-01-02 18:07:22.408	1
0.936	0.047	0.082	2024-01-02 18:07:22.496	0
1.365	-0.03	0.134	2024-01-02 18:07:22.618	0
1.094	-0.08	0.151	2024-01-02 18:07:22.677	0
0.926	0.737	0.184	2024-01-02 18:07:22.796	1
0.565	0.127	-0.001	2024-01-02 18:07:22.888	1
0.861	0.028	-0.051	2024-01-02 18:07:23.600	2
1.257	-0.065	-0.156	2024-01-02 18:07:23.960	2
1.37	-0.111	-0.094	2024-01-02 18:07:23.218	2
0.937	0.792	-0.05	2024-01-02 18:07:23.285	1
0.521	0.137	0.1	2024-01-02 18:07:23.395	1
0.851	0.021	0.044	2024-01-02 18:07:23.485	1
1.408	-0.039	0.141	2024-01-02 18:07:23.606	0
1.223	0.013	0.107	2024-01-02 18:07:23.697	0
0.972	0.621	0.143	2024-01-02 18:07:23.818	1
0.566	0.163	-0.03	2024-01-02 18:07:23.907	1
0.847	0.098	-0.042	2024-01-02 18:07:24.270	2
1.246	-0.173	-0.197	2024-01-02 18:07:24.840	2
1.267	-0.088	-0.145	2024-01-02 18:07:24.206	2
0.866	0.724	-0.001	2024-01-02 18:07:24.296	1
0.558	0.122	0.074	2024-01-02 18:07:24.417	1
0.938	-0.004	0.091	2024-01-02 18:07:24.505	0
1.336	-0.006	0.167	2024-01-02 18:07:24.628	0
1.186	-0.108	0.112	2024-01-02 18:07:24.687	0
0.87	0.786	0.313	2024-01-02 18:07:24.806	1
0.527	0.144	0.021	2024-01-02 18:07:24.897	1
0.949	0.054	-0.014	2024-01-02 18:07:25.160	2
1.304	-0.12	-0.186	2024-01-02 18:07:25.107	2
1.297	-0.055	-0.045	2024-01-02 18:07:25.228	2
0.924	0.75	0.162	2024-01-02 18:07:25.318	1
0.521	0.111	0.092	2024-01-02 18:07:25.439	1
0.897	0.038	0.078	2024-01-02 18:07:25.495	0
1.391	0.025	0.142	2024-01-02 18:07:25.617	0
1.052	-0.044	0.069	2024-01-02 18:07:25.706	0
1.014	0.554	0.226	2024-01-02 18:07:25.827	1
0.526	0.238	-0.016	2024-01-02 18:07:25.917	1
0.81	-0.026	-0.062	2024-01-02 18:07:26.380	2
1.333	-0.083	-0.149	2024-01-02 18:07:26.980	2
1.358	-0.071	-0.04	2024-01-02 18:07:26.218	2
0.991	0.688	-0.021	2024-01-02 18:07:26.307	1
0.524	0.217	0.155	2024-01-02 18:07:26.428	1
0.813	0.019	0.015	2024-01-02 18:07:26.515	1
1.342	-0.111	0.089	2024-01-02 18:07:26.676	0
1.238	-0.039	0.066	2024-01-02 18:07:26.728	0
1.039	0.599	0.216	2024-01-02 18:07:26.849	1
0.561	0.219	0.041	2024-01-02 18:07:26.907	1
0.739	0.014	-0.042	2024-01-02 18:07:27.270	1
1.277	-0.123	-0.088	2024-01-02 18:07:27.117	2
1.447	-0.026	-0.066	2024-01-02 18:07:27.236	2
1.09	0.489	-0.101	2024-01-02 18:07:27.326	2
0.6	0.105	0.197	2024-01-02 18:07:27.449	1
0.749	0.1	0.093	2024-01-02 18:07:27.536	1
1.279	-0.077	0.137	2024-01-02 18:07:27.628	0
1.167	0.042	0.165	2024-01-02 18:07:27.717	0
1.143	0.055	0.047	2024-01-02 18:07:27.837	2
0.699	0.425	0.038	2024-01-02 18:07:27.928	1
0.685	0.056	-0.055	2024-01-02 18:07:28.480	1
1.03	-0.031	-0.062	2024-01-02 18:07:28.138	2
1.352	-0.106	-0.113	2024-01-02 18:07:28.259	2
1.319	-0.019	-0.034	2024-01-02 18:07:28.318	2
0.78	0.537	0.25	2024-01-02 18:07:28.437	1
0.634	0.061	0.107	2024-01-02 18:07:28.527	1
0.933	-0.018	0.087	2024-01-02 18:07:28.737	0
1.306	-0.029	0.148	2024-01-02 18:07:28.738	0
1.083	-0.164	0.036	2024-01-02 18:07:28.857	0
0.922	0.689	0.164	2024-01-02 18:07:28.917	1
0.643	0.133	0.119	2024-01-02 18:07:29.350	1
0.847	0.011	-0.099	2024-01-02 18:07:29.127	2
1.226	-0.088	-0.247	2024-01-02 18:07:29.246	2
1.367	-0.08	-0.007	2024-01-02 18:07:29.339	2
0.97	0.532	-0.067	2024-01-02 18:07:29.457	2
0.534	0.157	0.134	2024-01-02 18:07:29.547	1
0.767	0.026	0.064	2024-01-02 18:07:29.684	1
1.299	-0.031	0.151	2024-01-02 18:07:29.727	0
1.249	-0.073	0.123	2024-01-02 18:07:29.845	0
1.097	0.225	0.025	2024-01-02 18:07:29.936	2
0.768	0.391	0.09	2024-01-02 18:07:30.570	1
0.746	0.111	-0.06	2024-01-02 18:07:30.149	1
0.998	0.01	-0.059	2024-01-02 18:07:30.285	2
1.179	-0.083	-0.083	2024-01-02 18:07:30.328	2
1.557	-0.167	-0.022	2024-01-02 18:07:30.447	2
0.79	0.978	0.295	2024-01-02 18:07:30.536	1
0.603	-0.019	0.171	2024-01-02 18:07:30.656	1
1.089	0.097	0.126	2024-01-02 18:07:30.749	0
1.381	-0.086	0.114	2024-01-02 18:07:30.885	0
1.175	0.05	-0.143	2024-01-02 18:07:30.959	2
0.856	0.838	0.236	2024-01-02 18:07:31.850	1
0.635	0.067	-0.082	2024-01-02 18:07:31.135	1
0.829	0.061	-0.094	2024-01-02 18:07:31.257	2
1.25	-0.105	-0.094	2024-01-02 18:07:31.360	2
1.36	-0.183	-0.037	2024-01-02 18:07:31.486	2
0.903	0.939	0.052	2024-01-02 18:07:31.559	1
0.656	-0.025	0.181	2024-01-02 18:07:31.686	1
0.835	0.07	0.064	2024-01-02 18:07:31.735	1
1.357	-0.051	0.137	2024-01-02 18:07:31.857	0
1.076	-0.1	0.067	2024-01-02 18:07:31.948	0
1.055	0.214	0.036	2024-01-02 18:07:32.860	2
0.677	0.225	0.033	2024-01-02 18:07:32.159	1
0.794	0.039	-0.063	2024-01-02 18:07:32.284	2
1.178	-0.101	-0.1	2024-01-02 18:07:32.384	2
1.124	-0.095	-0.067	2024-01-02 18:07:32.486	2
1.37	-0.107	-0.018	2024-01-02 18:07:32.545	2
0.72	0.695	0.229	2024-01-02 18:07:32.684	1
0.691	-0.002	0.088	2024-01-02 18:07:32.757	1
1.008	-0.047	0.071	2024-01-02 18:07:32.887	0
1.275	-0.081	0.12	2024-01-02 18:07:32.985	0
1.219	-0.136	0.09	2024-01-02 18:07:33.880	0
0.912	0.763	0.16	2024-01-02 18:07:33.148	1
0.635	0.007	-0.017	2024-01-02 18:07:33.287	1
0.818	0.031	-0.059	2024-01-02 18:07:33.359	2
1.247	-0.128	-0.103	2024-01-02 18:07:33.486	2
1.234	-0.089	-0.043	2024-01-02 18:07:33.575	2
1.1	0.185	-0.112	2024-01-02 18:07:33.690	2
0.624	0.33	0.192	2024-01-02 18:07:33.785	1
0.759	0.039	0.05	2024-01-02 18:07:33.897	1
1.323	-0.107	0.119	2024-01-02 18:07:33.959	0
1.12	-0.039	0.203	2024-01-02 18:07:34.850	0
1.269	-0.036	0.047	2024-01-02 18:07:34.184	0
0.73	0.834	0.227	2024-01-02 18:07:34.287	1
0.67	-0.025	-0.025	2024-01-02 18:07:34.386	1
1.044	0.001	-0.04	2024-01-02 18:07:34.497	2
1.295	-0.06	-0.113	2024-01-02 18:07:34.560	2
1.189	-0.146	-0.047	2024-01-02 18:07:34.689	2
0.859	0.742	0.002	2024-01-02 18:07:34.785	1
0.626	0.072	0.176	2024-01-02 18:07:34.887	1
0.928	0.006	0.062	2024-01-02 18:07:34.983	0
1.307	-0.015	0.157	2024-01-02 18:07:35.960	0
1.232	-0.16	0.073	2024-01-02 18:07:35.187	0
0.978	0.641	0.161	2024-01-02 18:07:35.307	1
0.602	0.11	-0.016	2024-01-02 18:07:35.385	1
0.81	0.047	-0.06	2024-01-02 18:07:35.488	2
1.234	-0.082	-0.104	2024-01-02 18:07:35.585	2
1.156	-0.039	-0.037	2024-01-02 18:07:35.697	2
1.178	0.093	-0.2	2024-01-02 18:07:35.787	2
0.604	0.396	0.215	2024-01-02 18:07:35.907	1
0.781	0.067	0.068	2024-01-02 18:07:35.987	1
1.295	-0.091	0.148	2024-01-02 18:07:36.890	0
1.165	-0.005	0.228	2024-01-02 18:07:36.185	0
1.246	0.029	-0.059	2024-01-02 18:07:36.296	2
0.776	0.749	0.194	2024-01-02 18:07:36.387	1
0.591	0.021	-0.081	2024-01-02 18:07:36.506	1
0.957	0.017	-0.075	2024-01-02 18:07:36.720	2
1.251	-0.121	-0.111	2024-01-02 18:07:36.720	2
1.306	-0.126	-0.104	2024-01-02 18:07:36.778	2
0.936	0.907	0.008	2024-01-02 18:07:36.897	1
0.615	0.042	0.131	2024-01-02 18:07:36.987	1
1.036	0.108	0.063	2024-01-02 18:07:37.107	2
1.297	-0.09	0.166	2024-01-02 18:07:37.196	0
1.2	-0.267	-0.0	2024-01-02 18:07:37.317	0
0.935	0.792	0.2	2024-01-02 18:07:37.408	1
0.581	0.014	-0.019	2024-01-02 18:07:37.496	1
0.814	0.008	-0.054	2024-01-02 18:07:37.587	2
1.31	-0.128	-0.103	2024-01-02 18:07:37.707	2
1.193	0.038	-0.095	2024-01-02 18:07:37.796	2
1.022	0.207	-0.147	2024-01-02 18:07:37.917	2
0.692	0.208	0.111	2024-01-02 18:07:38.700	1
0.663	0.117	0.086	2024-01-02 18:07:38.129	1
1.287	-0.035	0.153	2024-01-02 18:07:38.187	0
1.252	-0.016	0.23	2024-01-02 18:07:38.307	0
1.227	-0.148	0.016	2024-01-02 18:07:38.397	0
0.837	0.856	0.185	2024-01-02 18:07:38.514	1
0.591	0.012	-0.082	2024-01-02 18:07:38.607	1
0.91	-0.019	-0.059	2024-01-02 18:07:38.728	2
1.334	-0.036	-0.039	2024-01-02 18:07:38.786	2
1.311	-0.136	-0.072	2024-01-02 18:07:38.907	2
0.989	0.668	-0.124	2024-01-02 18:07:38.997	2
0.537	0.171	0.195	2024-01-02 18:07:39.116	1
0.838	0.031	0.114	2024-01-02 18:07:39.208	1
1.345	0.033	0.213	2024-01-02 18:07:39.328	0
1.027	-0.065	0.064	2024-01-02 18:07:39.418	0
1.163	0.232	0.026	2024-01-02 18:07:39.597	2
0.625	0.336	0.04	2024-01-02 18:07:39.597	1
0.688	0.052	-0.057	2024-01-02 18:07:39.719	1
1.194	0.005	-0.127	2024-01-02 18:07:39.805	2
1.145	-0.064	-0.061	2024-01-02 18:07:39.927	2
1.479	-0.086	-0.107	2024-01-02 18:07:40.160	2
0.641	0.723	0.143	2024-01-02 18:07:40.138	1
0.617	-0.074	0.057	2024-01-02 18:07:40.196	1
1.253	-0.056	0.121	2024-01-02 18:07:40.317	0
1.307	0.064	0.197	2024-01-02 18:07:40.406	0
1.291	-0.1	0.005	2024-01-02 18:07:40.525	2
0.814	0.981	0.118	2024-01-02 18:07:40.617	1
0.556	-0.038	-0.094	2024-01-02 18:07:40.738	1
0.899	0.027	-0.1	2024-01-02 18:07:40.828	2
1.243	-0.081	-0.01	2024-01-02 18:07:40.948	2
1.329	-0.138	-0.037	2024-01-02 18:07:41.300	2
0.959	0.889	0.062	2024-01-02 18:07:41.129	1
0.621	0.045	0.138	2024-01-02 18:07:41.217	1
0.81	0.143	0.126	2024-01-02 18:07:41.338	1
1.391	-0.032	0.129	2024-01-02 18:07:41.427	0
1.204	-0.093	0.055	2024-01-02 18:07:41.546	0
0.932	0.642	0.178	2024-01-02 18:07:41.607	1
0.594	0.067	-0.046	2024-01-02 18:07:41.729	1
0.767	0.091	-0.076	2024-01-02 18:07:41.814	2
1.309	-0.109	-0.148	2024-01-02 18:07:41.937	2
1.152	-0.02	-0.122	2024-01-02 18:07:42.270	2
1.169	0.233	-0.21	2024-01-02 18:07:42.148	2
0.571	0.185	0.145	2024-01-02 18:07:42.237	1
0.724	0.111	0.142	2024-01-02 18:07:42.359	1
1.288	-0.04	0.069	2024-01-02 18:07:42.417	0
1.173	-0.022	0.126	2024-01-02 18:07:42.536	0
1.23	-0.117	-0.007	2024-01-02 18:07:42.627	2
0.849	0.871	0.247	2024-01-02 18:07:42.782	1
0.62	0.034	-0.021	2024-01-02 18:07:42.837	1
0.955	0.071	-0.078	2024-01-02 18:07:42.958	2
1.27	-0.062	-0.063	2024-01-02 18:07:43.180	2
1.406	-0.157	-0.036	2024-01-02 18:07:43.138	2
0.938	0.791	-0.146	2024-01-02 18:07:43.228	2
0.513	0.089	0.153	2024-01-02 18:07:43.347	1
1.016	0.066	0.158	2024-01-02 18:07:43.436	0
1.375	-0.057	0.109	2024-01-02 18:07:43.557	0
1.181	-0.155	0.071	2024-01-02 18:07:43.647	0
1.0	0.668	0.192	2024-01-02 18:07:43.784	1
0.581	0.16	0.03	2024-01-02 18:07:43.828	1
0.79	-0.009	-0.07	2024-01-02 18:07:43.948	2
1.325	-0.087	-0.16	2024-01-02 18:07:44.370	2
1.12	-0.052	-0.028	2024-01-02 18:07:44.183	2
1.063	0.283	-0.08	2024-01-02 18:07:44.245	2
0.596	0.302	0.221	2024-01-02 18:07:44.388	1
0.717	0.077	0.232	2024-01-02 18:07:44.429	1
1.24	0.054	0.286	2024-01-02 18:07:44.548	0
1.364	-0.096	0.431	2024-01-02 18:07:44.638	0
1.1	0.076	0.26	2024-01-02 18:07:44.757	0
0.763	0.415	0.284	2024-01-02 18:07:44.848	1
0.713	-0.004	0.178	2024-01-02 18:07:44.985	1
0.965	-0.181	-0.137	2024-01-02 18:07:45.550	2
1.187	-0.07	-0.112	2024-01-02 18:07:45.189	2
0.892	1.081	0.42	2024-01-02 18:07:45.238	1
0.655	0.387	0.395	2024-01-02 18:07:45.359	1
0.561	0.312	0.189	2024-01-02 18:07:45.448	1
1.178	0.131	0.196	2024-01-02 18:07:45.589	0
1.059	0.632	0.282	2024-01-02 18:07:45.658	1
1.057	0.145	-0.373	2024-01-02 18:07:45.787	2
0.972	0.215	-0.267	2024-01-02 18:07:45.838	2
0.806	0.215	-0.063	2024-01-02 18:07:45.958	1
0.991	0.091	-0.132	2024-01-02 18:07:46.480	2
0.93	0.058	-0.104	2024-01-02 18:07:46.187	2
1.161	-0.352	0.138	2024-01-02 18:07:46.257	0
1.171	0.249	0.115	2024-01-02 18:07:46.385	2
0.686	0.224	0.421	2024-01-02 18:07:46.487	1
0.757	0.031	0.223	2024-01-02 18:07:46.587	1
1.049	0.0	0.432	2024-01-02 18:07:46.690	0
1.222	-0.191	0.415	2024-01-02 18:07:46.784	0
1.142	0.197	0.14	2024-01-02 18:07:46.858	0
0.701	0.45	0.021	2024-01-02 18:07:46.986	1
0.639	0.126	-0.029	2024-01-02 18:07:47.900	1
1.041	0.009	-0.046	2024-01-02 18:07:47.187	2
1.31	-0.029	-0.086	2024-01-02 18:07:47.248	2
1.255	-0.168	-0.037	2024-01-02 18:07:47.375	2
0.926	0.872	-0.04	2024-01-02 18:07:47.458	1
0.63	0.09	0.135	2024-01-02 18:07:47.681	1
0.849	0.131	0.102	2024-01-02 18:07:47.681	1
1.01	-0.039	0.036	2024-01-02 18:11:39.693	0
1.005	-0.019	0.062	2024-01-02 18:11:39.807	0
1.003	-0.018	0.063	2024-01-02 18:11:39.896	0
1.003	-0.021	0.066	2024-01-02 18:11:40.170	0
0.995	-0.015	0.069	2024-01-02 18:11:40.106	0
1.005	-0.016	0.059	2024-01-02 18:11:40.229	0
1.012	-0.02	0.061	2024-01-02 18:11:40.324	0
1.0	-0.017	0.063	2024-01-02 18:11:40.437	0
0.997	-0.02	0.057	2024-01-02 18:11:40.497	0
1.004	-0.022	0.062	2024-01-02 18:11:40.617	0
1.002	-0.018	0.068	2024-01-02 18:11:40.707	0
1.002	-0.024	0.06	2024-01-02 18:11:40.827	0
1.006	-0.024	0.064	2024-01-02 18:11:40.918	0
0.995	-0.021	0.063	2024-01-02 18:11:41.380	0
1.0	-0.027	0.059	2024-01-02 18:11:41.960	0
1.002	-0.024	0.064	2024-01-02 18:11:41.217	0
0.999	-0.022	0.064	2024-01-02 18:11:41.337	0
1.002	-0.028	0.063	2024-01-02 18:11:41.430	0
1.0	-0.028	0.068	2024-01-02 18:11:41.517	0
0.997	-0.022	0.063	2024-01-02 18:11:41.637	0
1.0	-0.027	0.059	2024-01-02 18:11:41.727	0
1.006	-0.028	0.065	2024-01-02 18:11:41.863	0
1.004	-0.029	0.061	2024-01-02 18:11:41.908	0
1.007	-0.03	0.064	2024-01-02 18:11:42.610	0
1.003	-0.028	0.071	2024-01-02 18:11:42.116	0
0.999	-0.029	0.06	2024-01-02 18:11:42.239	0
0.998	-0.03	0.061	2024-01-02 18:11:42.356	0
0.998	-0.03	0.068	2024-01-02 18:11:42.471	0
1.012	-0.034	0.06	2024-01-02 18:11:42.508	0
1.012	-0.032	0.064	2024-01-02 18:11:42.626	0
0.995	-0.029	0.07	2024-01-02 18:11:42.758	0
0.994	-0.03	0.067	2024-01-02 18:11:42.838	0
1.008	-0.036	0.058	2024-01-02 18:11:42.958	0
1.009	-0.035	0.063	2024-01-02 18:11:43.600	0
1.002	-0.032	0.068	2024-01-02 18:11:43.136	0
1.002	-0.035	0.063	2024-01-02 18:11:43.257	0
1.006	-0.034	0.066	2024-01-02 18:11:43.317	0
1.006	-0.036	0.061	2024-01-02 18:11:43.438	0
1.007	-0.036	0.06	2024-01-02 18:11:43.527	0
1.001	-0.037	0.07	2024-01-02 18:11:43.664	0
0.994	-0.039	0.063	2024-01-02 18:11:43.737	0
1.0	-0.035	0.066	2024-01-02 18:11:43.862	0
1.003	-0.031	0.075	2024-01-02 18:11:43.924	0
1.005	-0.036	0.073	2024-01-02 18:11:44.370	0
1.002	-0.042	0.072	2024-01-02 18:11:44.128	0
0.99	-0.036	0.075	2024-01-02 18:11:44.261	0
0.988	-0.03	0.07	2024-01-02 18:11:44.339	0
1.002	-0.034	0.079	2024-01-02 18:11:44.456	0
1.005	-0.038	0.086	2024-01-02 18:11:44.564	0
1.001	-0.043	0.076	2024-01-02 18:11:44.665	0
1.005	-0.04	0.08	2024-01-02 18:11:44.727	0
0.984	-0.034	0.083	2024-01-02 18:11:44.863	0
0.977	-0.032	0.083	2024-01-02 18:11:44.964	0
0.994	-0.034	0.084	2024-01-02 18:11:45.550	0
1.003	-0.041	0.073	2024-01-02 18:11:45.170	0
1.006	-0.047	0.081	2024-01-02 18:11:45.296	0
0.99	-0.04	0.085	2024-01-02 18:11:45.386	0
0.982	-0.03	0.086	2024-01-02 18:11:45.465	0
0.989	-0.038	0.085	2024-01-02 18:11:45.565	0
0.999	-0.045	0.082	2024-01-02 18:11:45.665	0
0.988	-0.043	0.075	2024-01-02 18:11:45.769	0
0.977	-0.042	0.072	2024-01-02 18:11:45.865	0
0.993	-0.04	0.076	2024-01-02 18:11:45.967	0
0.994	-0.042	0.078	2024-01-02 18:11:46.770	0
0.982	-0.044	0.083	2024-01-02 18:11:46.165	0
0.975	-0.044	0.09	2024-01-02 18:11:46.287	0
0.995	-0.043	0.087	2024-01-02 18:11:46.367	0
1.005	-0.053	0.088	2024-01-02 18:11:46.467	0
0.986	-0.052	0.082	2024-01-02 18:11:46.568	0
0.978	-0.043	0.078	2024-01-02 18:11:46.677	0
0.984	-0.042	0.087	2024-01-02 18:11:46.738	0
0.996	-0.048	0.087	2024-01-02 18:11:46.865	0
0.985	-0.055	0.078	2024-01-02 18:11:46.969	0
0.986	-0.052	0.083	2024-01-02 18:11:47.680	0
1.004	-0.051	0.087	2024-01-02 18:11:47.168	0
1.011	-0.055	0.092	2024-01-02 18:11:47.277	0
0.995	-0.055	0.085	2024-01-02 18:11:47.399	0
0.984	-0.051	0.087	2024-01-02 18:11:47.489	0
0.999	-0.05	0.095	2024-01-02 18:11:47.567	0
1.001	-0.058	0.081	2024-01-02 18:11:47.667	0
0.993	-0.059	0.08	2024-01-02 18:11:47.767	0
0.991	-0.063	0.075	2024-01-02 18:11:47.910	0
0.992	-0.056	0.085	2024-01-02 18:11:47.969	0
0.996	-0.056	0.076	2024-01-02 18:11:48.880	0
1.003	-0.059	0.069	2024-01-02 18:11:48.152	0
1.006	-0.055	0.078	2024-01-02 18:11:48.268	0
1.004	-0.058	0.083	2024-01-02 18:11:48.360	0
0.997	-0.062	0.079	2024-01-02 18:11:48.478	0
0.989	-0.063	0.07	2024-01-02 18:11:48.568	0
1.0	-0.062	0.052	2024-01-02 18:11:48.690	0
1.01	-0.065	0.043	2024-01-02 18:11:48.778	0
1.0	-0.07	0.049	2024-01-02 18:11:48.900	0
0.997	-0.083	0.051	2024-01-02 18:11:48.966	0
1.009	-0.094	0.056	2024-01-02 18:11:49.770	0
0.997	-0.102	0.071	2024-01-02 18:11:49.167	0
0.99	-0.105	0.069	2024-01-02 18:11:49.288	0
0.986	-0.108	0.066	2024-01-02 18:11:49.379	0
0.99	-0.106	0.069	2024-01-02 18:11:49.498	0
0.989	-0.122	0.062	2024-01-02 18:11:49.566	0
0.986	-0.135	0.069	2024-01-02 18:11:49.677	0
0.993	-0.14	0.074	2024-01-02 18:11:49.770	0
0.994	-0.14	0.066	2024-01-02 18:11:49.888	0
0.98	-0.132	0.05	2024-01-02 18:11:49.978	0
0.973	-0.129	0.044	2024-01-02 18:11:50.970	0
0.989	-0.139	0.047	2024-01-02 18:11:50.188	0
0.997	-0.146	0.041	2024-01-02 18:11:50.310	0
0.974	-0.147	0.04	2024-01-02 18:11:50.368	0
0.967	-0.133	0.056	2024-01-02 18:11:50.521	0
0.99	-0.127	0.06	2024-01-02 18:11:50.579	0
1.009	-0.138	0.048	2024-01-02 18:11:50.700	0
0.984	-0.146	0.038	2024-01-02 18:11:50.788	0
0.971	-0.144	0.038	2024-01-02 18:11:50.910	0
0.987	-0.138	0.041	2024-01-02 18:11:50.968	0
0.995	-0.136	0.036	2024-01-02 18:11:51.880	0
0.992	-0.133	0.05	2024-01-02 18:11:51.178	0
0.996	-0.134	0.063	2024-01-02 18:11:51.299	0
1.001	-0.14	0.058	2024-01-02 18:11:51.388	0
0.983	-0.143	0.048	2024-01-02 18:11:51.507	0
0.978	-0.14	0.048	2024-01-02 18:11:51.599	0
0.996	-0.135	0.056	2024-01-02 18:11:51.718	0
0.997	-0.14	0.045	2024-01-02 18:11:51.777	0
0.984	-0.143	0.035	2024-01-02 18:11:51.897	0
0.98	-0.142	0.04	2024-01-02 18:11:51.988	0
0.994	-0.142	0.055	2024-01-02 18:11:52.109	0
1.0	-0.139	0.048	2024-01-02 18:11:52.200	0
0.998	-0.144	0.051	2024-01-02 18:11:52.318	0
0.976	-0.144	0.054	2024-01-02 18:11:52.376	0
0.985	-0.138	0.065	2024-01-02 18:11:52.498	0
1.007	-0.144	0.055	2024-01-02 18:11:52.588	0
0.996	-0.143	0.043	2024-01-02 18:11:52.708	0
0.963	-0.131	0.037	2024-01-02 18:11:52.799	0
0.977	-0.13	0.042	2024-01-02 18:11:52.919	0
1.003	-0.133	0.053	2024-01-02 18:11:53.900	0
1.001	-0.143	0.064	2024-01-02 18:11:53.130	0
0.984	-0.136	0.066	2024-01-02 18:11:53.188	0
0.994	-0.132	0.058	2024-01-02 18:11:53.306	0
0.997	-0.133	0.059	2024-01-02 18:11:53.398	0
0.988	-0.14	0.066	2024-01-02 18:11:53.557	0
0.981	-0.141	0.071	2024-01-02 18:11:53.610	0
0.986	-0.141	0.079	2024-01-02 18:11:53.729	0
0.981	-0.137	0.086	2024-01-02 18:11:53.789	0
0.979	-0.129	0.086	2024-01-02 18:11:53.910	0
0.993	-0.134	0.071	2024-01-02 18:11:53.997	0
1.0	-0.14	0.058	2024-01-02 18:11:54.159	0
1.004	-0.14	0.065	2024-01-02 18:11:54.210	0
0.993	-0.145	0.072	2024-01-02 18:11:54.329	0
0.98	-0.14	0.082	2024-01-02 18:11:54.418	0
0.982	-0.134	0.089	2024-01-02 18:11:54.540	0
1.003	-0.131	0.094	2024-01-02 18:11:54.597	0
1.005	-0.137	0.093	2024-01-02 18:11:54.718	0
0.969	-0.139	0.072	2024-01-02 18:11:54.809	0
0.959	-0.132	0.065	2024-01-02 18:11:54.929	0
0.984	-0.13	0.064	2024-01-02 18:11:55.200	0
1.017	-0.132	0.075	2024-01-02 18:11:55.139	0
1.008	-0.144	0.073	2024-01-02 18:11:55.196	0
0.973	-0.132	0.084	2024-01-02 18:11:55.321	0
0.977	-0.124	0.092	2024-01-02 18:11:55.409	0
0.99	-0.132	0.079	2024-01-02 18:11:55.530	0
0.991	-0.143	0.079	2024-01-02 18:11:55.619	0
0.982	-0.132	0.086	2024-01-02 18:11:55.768	0
0.989	-0.127	0.074	2024-01-02 18:11:55.832	0
0.978	-0.133	0.068	2024-01-02 18:11:55.959	0
1.013	-0.132	0.068	2024-01-02 18:11:56.100	0
1.043	-0.133	0.085	2024-01-02 18:11:56.129	0
1.006	-0.136	0.082	2024-01-02 18:11:56.219	0
0.982	-0.146	0.063	2024-01-02 18:11:56.340	0
0.994	-0.144	0.076	2024-01-02 18:11:56.429	0
0.991	-0.133	0.097	2024-01-02 18:11:56.556	0
0.938	-0.133	0.096	2024-01-02 18:11:56.639	0
0.943	-0.13	0.081	2024-01-02 18:11:56.729	0
0.982	-0.128	0.066	2024-01-02 18:11:56.819	0
0.998	-0.137	0.069	2024-01-02 18:11:56.940	0
1.005	-0.138	0.07	2024-01-02 18:11:57.290	0
1.004	-0.136	0.083	2024-01-02 18:11:57.159	0
0.982	-0.133	0.101	2024-01-02 18:11:57.240	0
0.98	-0.133	0.093	2024-01-02 18:11:57.368	0
0.985	-0.132	0.072	2024-01-02 18:11:57.420	0
1.006	-0.128	0.071	2024-01-02 18:11:57.540	0
0.985	-0.132	0.078	2024-01-02 18:11:57.630	0
0.97	-0.131	0.086	2024-01-02 18:11:57.761	0
0.985	-0.134	0.082	2024-01-02 18:11:57.842	0
1.009	-0.144	0.076	2024-01-02 18:11:57.964	0
0.995	-0.149	0.077	2024-01-02 18:11:58.200	0
0.961	-0.137	0.075	2024-01-02 18:11:58.140	0
0.96	-0.126	0.073	2024-01-02 18:11:58.267	0
0.998	-0.128	0.073	2024-01-02 18:11:58.377	0
1.014	-0.14	0.077	2024-01-02 18:11:58.468	0
0.979	-0.14	0.081	2024-01-02 18:11:58.588	0
0.986	-0.132	0.083	2024-01-02 18:11:58.658	0
1.016	-0.127	0.084	2024-01-02 18:11:58.771	0
1.027	-0.14	0.078	2024-01-02 18:11:58.829	0
0.987	-0.143	0.068	2024-01-02 18:11:58.958	0
0.957	-0.132	0.067	2024-01-02 18:11:59.410	0
0.966	-0.124	0.068	2024-01-02 18:11:59.168	0
0.991	-0.132	0.077	2024-01-02 18:11:59.260	0
0.992	-0.139	0.085	2024-01-02 18:11:59.368	0
0.983	-0.139	0.084	2024-01-02 18:11:59.429	0
0.986	-0.131	0.078	2024-01-02 18:11:59.558	0
0.989	-0.133	0.071	2024-01-02 18:11:59.641	0
0.988	-0.136	0.074	2024-01-02 18:11:59.766	0
0.99	-0.14	0.079	2024-01-02 18:11:59.862	0
0.986	-0.139	0.078	2024-01-02 18:11:59.998	0
0.992	-0.144	0.078	2024-01-02 18:12:00.630	0
0.979	-0.141	0.077	2024-01-02 18:12:00.178	0
0.984	-0.139	0.077	2024-01-02 18:12:00.239	0
1.003	-0.137	0.08	2024-01-02 18:12:00.366	0
0.992	-0.145	0.077	2024-01-02 18:12:00.460	0
0.974	-0.14	0.075	2024-01-02 18:12:00.661	0
0.979	-0.136	0.07	2024-01-02 18:12:00.661	0
1.012	-0.136	0.075	2024-01-02 18:12:00.779	0
1.004	-0.139	0.076	2024-01-02 18:12:00.839	0
0.968	-0.136	0.078	2024-01-02 18:12:00.967	0
0.971	-0.128	0.081	2024-01-02 18:12:01.600	0
0.989	-0.132	0.078	2024-01-02 18:12:01.168	0
0.992	-0.138	0.081	2024-01-02 18:12:01.265	0
0.998	-0.138	0.084	2024-01-02 18:12:01.378	0
0.999	-0.141	0.081	2024-01-02 18:12:01.467	0
0.993	-0.136	0.08	2024-01-02 18:12:01.588	0
0.976	-0.137	0.089	2024-01-02 18:12:01.660	0
0.985	-0.136	0.091	2024-01-02 18:12:01.768	0
0.999	-0.139	0.092	2024-01-02 18:12:01.865	0
0.996	-0.142	0.096	2024-01-02 18:12:01.985	0
0.982	-0.139	0.099	2024-01-02 18:12:02.680	0
0.985	-0.136	0.095	2024-01-02 18:12:02.188	0
0.995	-0.141	0.088	2024-01-02 18:12:02.259	0
0.991	-0.145	0.09	2024-01-02 18:12:02.368	0
0.978	-0.136	0.1	2024-01-02 18:12:02.466	0
0.976	-0.133	0.104	2024-01-02 18:12:02.579	0
0.993	-0.14	0.099	2024-01-02 18:12:02.698	0
1.01	-0.139	0.098	2024-01-02 18:12:02.788	0
0.993	-0.139	0.101	2024-01-02 18:12:02.880	0
0.962	-0.135	0.099	2024-01-02 18:12:02.999	0
0.978	-0.129	0.104	2024-01-02 18:12:03.710	0
1.004	-0.137	0.114	2024-01-02 18:12:03.176	0
1.006	-0.144	0.11	2024-01-02 18:12:03.268	0
0.984	-0.14	0.105	2024-01-02 18:12:03.388	0
0.985	-0.134	0.113	2024-01-02 18:12:03.478	0
0.989	-0.135	0.114	2024-01-02 18:12:03.599	0
0.975	-0.142	0.101	2024-01-02 18:12:03.667	0
0.979	-0.14	0.097	2024-01-02 18:12:03.778	0
0.983	-0.141	0.11	2024-01-02 18:12:03.869	0
0.988	-0.143	0.124	2024-01-02 18:12:03.988	0
0.974	-0.144	0.116	2024-01-02 18:12:04.780	0
0.987	-0.142	0.118	2024-01-02 18:12:04.199	0
0.987	-0.144	0.114	2024-01-02 18:12:04.288	0
0.976	-0.15	0.106	2024-01-02 18:12:04.407	0
0.972	-0.143	0.109	2024-01-02 18:12:04.466	0
0.996	-0.147	0.098	2024-01-02 18:12:04.586	0
0.99	-0.145	0.115	2024-01-02 18:12:04.675	0
0.985	-0.142	0.113	2024-01-02 18:12:04.797	0
0.998	-0.146	0.112	2024-01-02 18:12:04.885	0
0.992	-0.145	0.106	2024-01-02 18:12:05.700	0
0.979	-0.144	0.1	2024-01-02 18:12:05.650	0
0.987	-0.145	0.113	2024-01-02 18:12:05.186	0
1.022	-0.147	0.116	2024-01-02 18:12:05.275	0
1.011	-0.155	0.099	2024-01-02 18:12:05.397	0
1.0	-0.156	0.104	2024-01-02 18:12:05.486	0
1.0	-0.149	0.108	2024-01-02 18:12:05.607	0
0.999	-0.149	0.113	2024-01-02 18:12:05.696	0
0.994	-0.151	0.105	2024-01-02 18:12:05.817	0
0.986	-0.147	0.112	2024-01-02 18:12:05.876	0
1.005	-0.141	0.121	2024-01-02 18:12:05.997	0
1.014	-0.15	0.109	2024-01-02 18:12:06.860	0
0.998	-0.156	0.1	2024-01-02 18:12:06.206	0
0.996	-0.15	0.098	2024-01-02 18:12:06.296	0
1.012	-0.149	0.106	2024-01-02 18:12:06.417	0
1.016	-0.155	0.099	2024-01-02 18:12:06.475	0
1.002	-0.158	0.096	2024-01-02 18:12:06.596	0
0.999	-0.152	0.102	2024-01-02 18:12:06.685	0
0.991	-0.151	0.096	2024-01-02 18:12:06.807	0
0.979	-0.15	0.096	2024-01-02 18:12:06.896	0
1.0	-0.144	0.1	2024-01-02 18:12:07.170	0
1.026	-0.146	0.108	2024-01-02 18:12:07.107	0
1.025	-0.154	0.112	2024-01-02 18:12:07.227	0
0.991	-0.155	0.101	2024-01-02 18:12:07.285	0
0.997	-0.149	0.102	2024-01-02 18:12:07.408	0
1.002	-0.148	0.106	2024-01-02 18:12:07.497	0
1.021	-0.147	0.106	2024-01-02 18:12:07.617	0
0.979	-0.148	0.102	2024-01-02 18:12:07.707	0
0.971	-0.142	0.099	2024-01-02 18:12:07.828	0
1.022	-0.145	0.103	2024-01-02 18:12:07.885	0
1.041	-0.154	0.1	2024-01-02 18:12:08.700	0
1.006	-0.162	0.104	2024-01-02 18:12:08.990	0
0.992	-0.158	0.107	2024-01-02 18:12:08.219	0
1.01	-0.155	0.104	2024-01-02 18:12:08.310	0
1.006	-0.161	0.104	2024-01-02 18:12:08.429	0
1.001	-0.156	0.093	2024-01-02 18:12:08.519	0
1.004	-0.147	0.087	2024-01-02 18:12:08.639	0
1.009	-0.149	0.099	2024-01-02 18:12:08.699	0
1.001	-0.15	0.1	2024-01-02 18:12:08.819	0
0.992	-0.143	0.1	2024-01-02 18:12:08.910	0
1.002	-0.141	0.105	2024-01-02 18:12:09.300	0
1.021	-0.143	0.095	2024-01-02 18:12:09.165	0
1.023	-0.142	0.091	2024-01-02 18:12:09.241	0
0.997	-0.144	0.098	2024-01-02 18:12:09.297	0
0.986	-0.142	0.112	2024-01-02 18:12:09.420	0
0.989	-0.147	0.099	2024-01-02 18:12:09.510	0
1.02	-0.153	0.098	2024-01-02 18:12:09.631	0
1.008	-0.152	0.094	2024-01-02 18:12:09.719	0
0.999	-0.147	0.088	2024-01-02 18:12:09.840	0
1.021	-0.144	0.096	2024-01-02 18:12:09.960	0
1.02	-0.144	0.09	2024-01-02 18:12:10.680	0
0.999	-0.143	0.108	2024-01-02 18:12:10.110	0
0.979	-0.143	0.098	2024-01-02 18:12:10.230	0
0.979	-0.131	0.1	2024-01-02 18:12:10.319	0
1.002	-0.134	0.108	2024-01-02 18:12:10.439	0
1.01	-0.14	0.094	2024-01-02 18:12:10.530	0
1.005	-0.14	0.105	2024-01-02 18:12:10.665	0
1.017	-0.144	0.09	2024-01-02 18:12:10.710	0
1.025	-0.151	0.096	2024-01-02 18:12:10.830	0
1.007	-0.153	0.096	2024-01-02 18:12:10.920	0
0.993	-0.144	0.096	2024-01-02 18:12:11.390	0
0.995	-0.139	0.084	2024-01-02 18:12:11.129	0
1.009	-0.138	0.09	2024-01-02 18:12:11.267	0
1.006	-0.137	0.083	2024-01-02 18:12:11.341	0
0.989	-0.137	0.097	2024-01-02 18:12:11.467	0
1.01	-0.137	0.109	2024-01-02 18:12:11.521	0
1.009	-0.137	0.091	2024-01-02 18:12:11.636	0
0.993	-0.139	0.097	2024-01-02 18:12:11.730	0
1.003	-0.146	0.085	2024-01-02 18:12:11.859	0
1.01	-0.143	0.091	2024-01-02 18:12:11.941	0
1.0	-0.141	0.094	2024-01-02 18:12:12.670	0
0.965	-0.135	0.082	2024-01-02 18:12:12.120	0
0.965	-0.125	0.083	2024-01-02 18:12:12.241	0
1.006	-0.126	0.087	2024-01-02 18:12:12.328	0
1.031	-0.134	0.093	2024-01-02 18:12:12.465	0
0.986	-0.142	0.09	2024-01-02 18:12:12.538	0
0.941	-0.13	0.114	2024-01-02 18:12:12.659	0
0.968	-0.126	0.088	2024-01-02 18:12:12.775	0
1.026	-0.138	0.079	2024-01-02 18:12:12.867	0
1.033	-0.145	0.075	2024-01-02 18:12:12.930	0
0.989	-0.138	0.092	2024-01-02 18:12:13.790	0
0.978	-0.127	0.092	2024-01-02 18:12:13.137	0
1.003	-0.127	0.086	2024-01-02 18:12:13.263	0
0.996	-0.135	0.086	2024-01-02 18:12:13.373	0
0.995	-0.139	0.091	2024-01-02 18:12:13.468	0
0.969	-0.132	0.091	2024-01-02 18:12:13.530	0
0.989	-0.126	0.086	2024-01-02 18:12:13.664	0
1.001	-0.131	0.073	2024-01-02 18:12:13.740	0
1.016	-0.14	0.08	2024-01-02 18:12:13.857	0
0.994	-0.143	0.09	2024-01-02 18:12:13.968	0
0.997	-0.132	0.095	2024-01-02 18:12:14.690	0
0.988	-0.133	0.079	2024-01-02 18:12:14.171	0
0.993	-0.133	0.076	2024-01-02 18:12:14.277	0
0.997	-0.132	0.095	2024-01-02 18:12:14.338	0
1.008	-0.14	0.078	2024-01-02 18:12:14.464	0
1.0	-0.138	0.095	2024-01-02 18:12:14.574	0
0.975	-0.124	0.091	2024-01-02 18:12:14.668	0
0.982	-0.114	0.072	2024-01-02 18:12:14.768	0
1.013	-0.102	0.073	2024-01-02 18:12:14.875	0
1.028	-0.105	0.077	2024-01-02 18:12:14.973	0
0.998	-0.089	0.09	2024-01-02 18:12:15.800	0
0.984	-0.079	0.093	2024-01-02 18:12:15.167	0
1.003	-0.074	0.066	2024-01-02 18:12:15.269	0
1.015	-0.071	0.08	2024-01-02 18:12:15.362	0
1.001	-0.067	0.065	2024-01-02 18:12:15.479	0
0.995	-0.054	0.082	2024-01-02 18:12:15.569	0
0.999	-0.051	0.071	2024-01-02 18:12:15.688	0
1.012	-0.058	0.073	2024-01-02 18:12:15.768	0
1.005	-0.059	0.086	2024-01-02 18:12:15.869	0
0.986	-0.052	0.086	2024-01-02 18:12:15.962	0
0.997	-0.053	0.086	2024-01-02 18:12:16.110	0
1.009	-0.059	0.086	2024-01-02 18:12:16.170	0
0.998	-0.057	0.084	2024-01-02 18:12:16.288	0
1.009	-0.063	0.076	2024-01-02 18:12:16.368	0
1.021	-0.069	0.071	2024-01-02 18:12:16.467	0
1.003	-0.064	0.082	2024-01-02 18:12:16.588	0
1.003	-0.061	0.096	2024-01-02 18:12:16.679	0
0.983	-0.056	0.085	2024-01-02 18:12:16.773	0
1.005	-0.05	0.09	2024-01-02 18:12:16.889	0
1.039	-0.063	0.091	2024-01-02 18:12:17.100	0
1.013	-0.068	0.092	2024-01-02 18:12:17.100	0
0.989	-0.062	0.069	2024-01-02 18:12:17.188	0
1.003	-0.062	0.088	2024-01-02 18:12:17.279	0
1.002	-0.063	0.088	2024-01-02 18:12:17.371	0
0.998	-0.063	0.072	2024-01-02 18:12:17.489	0
0.996	-0.065	0.083	2024-01-02 18:12:17.580	0
1.005	-0.062	0.083	2024-01-02 18:12:17.700	0
1.015	-0.047	0.095	2024-01-02 18:12:17.789	0
0.994	-0.055	0.082	2024-01-02 18:12:17.879	0
0.987	-0.054	0.091	2024-01-02 18:12:17.968	0
1.026	-0.063	0.086	2024-01-02 18:12:18.890	0
1.015	-0.06	0.086	2024-01-02 18:12:18.179	0
0.993	-0.057	0.094	2024-01-02 18:12:18.300	0
0.994	-0.066	0.091	2024-01-02 18:12:18.388	0
0.987	-0.053	0.103	2024-01-02 18:12:18.506	0
1.005	-0.059	0.097	2024-01-02 18:12:18.567	0
1.019	-0.065	0.09	2024-01-02 18:12:18.686	0
1.004	-0.066	0.094	2024-01-02 18:12:18.775	0
0.981	-0.061	0.095	2024-01-02 18:12:18.927	0
1.014	-0.062	0.094	2024-01-02 18:12:18.985	0
1.01	-0.062	0.085	2024-01-02 18:12:19.107	0
0.982	-0.06	0.104	2024-01-02 18:12:19.168	0
1.002	-0.055	0.099	2024-01-02 18:12:19.285	0
1.03	-0.056	0.094	2024-01-02 18:12:19.375	0
1.012	-0.064	0.101	2024-01-02 18:12:19.496	0
1.008	-0.061	0.111	2024-01-02 18:12:19.586	0
1.01	-0.057	0.104	2024-01-02 18:12:19.707	0
1.005	-0.056	0.104	2024-01-02 18:12:19.796	0
1.0	-0.062	0.111	2024-01-02 18:12:19.916	0
1.0	-0.066	0.101	2024-01-02 18:12:19.976	0
0.996	-0.061	0.11	2024-01-02 18:12:20.970	0
0.983	-0.053	0.103	2024-01-02 18:12:20.186	0
1.009	-0.051	0.104	2024-01-02 18:12:20.306	0
1.036	-0.062	0.102	2024-01-02 18:12:20.428	0
1.008	-0.071	0.105	2024-01-02 18:12:20.516	0
0.972	-0.059	0.118	2024-01-02 18:12:20.575	0
0.994	-0.052	0.106	2024-01-02 18:12:20.696	0
1.021	-0.058	0.112	2024-01-02 18:12:20.786	0
1.01	-0.059	0.125	2024-01-02 18:12:20.907	0
1.004	-0.068	0.123	2024-01-02 18:12:20.997	0
1.011	-0.067	0.111	2024-01-02 18:12:21.141	0
0.998	-0.069	0.11	2024-01-02 18:12:21.209	0
0.984	-0.06	0.104	2024-01-02 18:12:21.330	0
0.999	-0.06	0.123	2024-01-02 18:12:21.388	0
1.006	-0.065	0.106	2024-01-02 18:12:21.509	0
0.992	-0.066	0.096	2024-01-02 18:12:21.596	0
0.988	-0.061	0.105	2024-01-02 18:12:21.719	0
1.022	-0.065	0.106	2024-01-02 18:12:21.809	0
1.027	-0.07	0.115	2024-01-02 18:12:21.927	0
0.988	-0.071	0.101	2024-01-02 18:12:21.988	0
0.98	-0.07	0.107	2024-01-02 18:12:22.140	0
1.02	-0.074	0.103	2024-01-02 18:12:22.199	0
1.023	-0.067	0.123	2024-01-02 18:12:22.318	0
0.965	-0.069	0.108	2024-01-02 18:12:22.444	0
0.96	-0.063	0.103	2024-01-02 18:12:22.529	0
1.015	-0.064	0.101	2024-01-02 18:12:22.617	0
1.024	-0.068	0.107	2024-01-02 18:12:22.739	0
0.985	-0.068	0.13	2024-01-02 18:12:22.800	0
0.975	-0.052	0.117	2024-01-02 18:12:22.920	0
1.005	-0.068	0.109	2024-01-02 18:12:23.800	0
1.001	-0.088	0.112	2024-01-02 18:12:23.168	0
0.972	-0.084	0.113	2024-01-02 18:12:23.218	0
1.008	-0.082	0.127	2024-01-02 18:12:23.339	0
1.012	-0.102	0.122	2024-01-02 18:12:23.399	0
0.969	-0.103	0.13	2024-01-02 18:12:23.569	0
0.972	-0.103	0.115	2024-01-02 18:12:23.608	0
1.0	-0.111	0.115	2024-01-02 18:12:23.729	0
0.991	-0.127	0.123	2024-01-02 18:12:23.819	0
0.948	-0.125	0.126	2024-01-02 18:12:23.939	0
0.976	-0.12	0.123	2024-01-02 18:12:24.290	0
1.039	-0.135	0.107	2024-01-02 18:12:24.179	0
1.011	-0.145	0.125	2024-01-02 18:12:24.207	0
0.96	-0.139	0.128	2024-01-02 18:12:24.330	0
0.991	-0.127	0.128	2024-01-02 18:12:24.419	0
0.995	-0.138	0.114	2024-01-02 18:12:24.539	0
0.984	-0.131	0.134	2024-01-02 18:12:24.631	0
0.982	-0.131	0.105	2024-01-02 18:12:24.767	0
0.994	-0.125	0.125	2024-01-02 18:12:24.807	0
1.001	-0.132	0.134	2024-01-02 18:12:24.928	0
0.999	-0.13	0.134	2024-01-02 18:12:25.170	0
1.0	-0.136	0.11	2024-01-02 18:12:25.138	0
0.984	-0.138	0.121	2024-01-02 18:12:25.227	0
0.99	-0.131	0.126	2024-01-02 18:12:25.368	0
0.979	-0.133	0.111	2024-01-02 18:12:25.468	0
0.967	-0.131	0.113	2024-01-02 18:12:25.574	0
1.003	-0.13	0.125	2024-01-02 18:12:25.617	0
1.013	-0.137	0.128	2024-01-02 18:12:25.741	0
0.98	-0.136	0.122	2024-01-02 18:12:25.829	0
0.975	-0.134	0.12	2024-01-02 18:12:25.969	0
1.011	-0.125	0.123	2024-01-02 18:12:26.370	0
1.001	-0.135	0.105	2024-01-02 18:12:26.187	0
0.964	-0.136	0.113	2024-01-02 18:12:26.215	0
0.979	-0.128	0.106	2024-01-02 18:12:26.340	0
1.025	-0.13	0.123	2024-01-02 18:12:26.430	0
1.006	-0.137	0.119	2024-01-02 18:12:26.580	0
0.977	-0.14	0.126	2024-01-02 18:12:26.640	0
0.974	-0.136	0.123	2024-01-02 18:12:26.765	0
0.995	-0.133	0.117	2024-01-02 18:12:27.123	0
0.977	-0.137	0.121	2024-01-02 18:12:27.123	0
0.964	-0.13	0.108	2024-01-02 18:12:27.123	0
1.007	-0.125	0.114	2024-01-02 18:12:27.148	0
1.016	-0.138	0.115	2024-01-02 18:12:27.237	0
0.985	-0.141	0.111	2024-01-02 18:12:27.368	0
0.967	-0.127	0.121	2024-01-02 18:12:27.475	0
0.986	-0.13	0.12	2024-01-02 18:12:27.569	0
0.981	-0.132	0.112	2024-01-02 18:12:27.628	0
0.986	-0.125	0.11	2024-01-02 18:12:27.767	0
1.008	-0.128	0.102	2024-01-02 18:12:27.840	0
0.999	-0.133	0.104	2024-01-02 18:12:27.958	0
0.985	-0.13	0.11	2024-01-02 18:12:28.700	0
0.99	-0.127	0.114	2024-01-02 18:12:28.169	0
1.015	-0.129	0.114	2024-01-02 18:12:28.275	0
1.012	-0.135	0.108	2024-01-02 18:12:28.378	0
0.983	-0.127	0.115	2024-01-02 18:12:28.473	0
0.991	-0.125	0.107	2024-01-02 18:12:28.567	0
1.004	-0.127	0.108	2024-01-02 18:12:28.668	0
1.003	-0.129	0.111	2024-01-02 18:12:28.784	0
0.991	-0.127	0.112	2024-01-02 18:12:28.864	0
0.995	-0.127	0.116	2024-01-02 18:12:28.977	0
0.983	-0.128	0.108	2024-01-02 18:12:29.430	0
0.977	-0.125	0.12	2024-01-02 18:12:29.172	0
1.002	-0.125	0.111	2024-01-02 18:12:29.269	0
1.007	-0.129	0.107	2024-01-02 18:12:29.365	0
0.987	-0.129	0.105	2024-01-02 18:12:29.472	0
0.977	-0.126	0.104	2024-01-02 18:12:29.578	0
1.008	-0.127	0.116	2024-01-02 18:12:29.673	0
0.998	-0.129	0.097	2024-01-02 18:12:29.790	0
0.974	-0.125	0.113	2024-01-02 18:12:29.874	0
0.98	-0.124	0.112	2024-01-02 18:12:29.968	0
1.001	-0.124	0.106	2024-01-02 18:12:30.730	0
1.005	-0.127	0.106	2024-01-02 18:12:30.176	0
0.984	-0.129	0.103	2024-01-02 18:12:30.269	0
0.981	-0.121	0.104	2024-01-02 18:12:30.388	0
1.002	-0.119	0.095	2024-01-02 18:12:30.469	0
1.004	-0.128	0.096	2024-01-02 18:12:30.568	0
0.988	-0.126	0.106	2024-01-02 18:12:30.689	0
0.995	-0.118	0.109	2024-01-02 18:12:30.778	0
1.016	-0.124	0.11	2024-01-02 18:12:30.869	0
0.999	-0.126	0.106	2024-01-02 18:12:30.989	0
0.988	-0.12	0.116	2024-01-02 18:12:31.780	0
0.989	-0.117	0.108	2024-01-02 18:12:31.197	0
0.996	-0.124	0.101	2024-01-02 18:12:31.271	0
0.98	-0.123	0.099	2024-01-02 18:12:31.380	0
0.974	-0.117	0.113	2024-01-02 18:12:31.469	0
0.99	-0.118	0.118	2024-01-02 18:12:31.588	0
0.991	-0.125	0.104	2024-01-02 18:12:31.678	0
0.955	-0.125	0.105	2024-01-02 18:12:31.799	0
0.962	-0.117	0.116	2024-01-02 18:12:31.870	0
0.991	-0.122	0.088	2024-01-02 18:12:31.978	0
0.994	-0.122	0.091	2024-01-02 18:12:32.690	0
0.986	-0.12	0.108	2024-01-02 18:12:32.186	0
0.971	-0.125	0.111	2024-01-02 18:12:32.277	0
0.979	-0.121	0.102	2024-01-02 18:12:32.397	0
0.986	-0.124	0.101	2024-01-02 18:12:32.488	0
0.978	-0.124	0.105	2024-01-02 18:12:32.608	0
0.987	-0.125	0.098	2024-01-02 18:12:32.669	0
0.992	-0.121	0.101	2024-01-02 18:12:32.787	0
0.985	-0.121	0.102	2024-01-02 18:12:32.878	0
0.973	-0.125	0.102	2024-01-02 18:12:32.999	0
0.977	-0.122	0.104	2024-01-02 18:12:33.890	0
0.984	-0.123	0.101	2024-01-02 18:12:33.210	0
0.977	-0.128	0.103	2024-01-02 18:12:33.267	0
0.966	-0.122	0.103	2024-01-02 18:12:33.388	0
0.991	-0.121	0.1	2024-01-02 18:12:33.477	0
0.983	-0.127	0.106	2024-01-02 18:12:33.599	0
0.964	-0.131	0.097	2024-01-02 18:12:33.687	0
0.959	-0.126	0.097	2024-01-02 18:12:33.810	0
0.982	-0.124	0.101	2024-01-02 18:12:33.900	0
1.005	-0.129	0.1	2024-01-02 18:12:34.200	0
0.983	-0.134	0.104	2024-01-02 18:12:34.780	0
0.962	-0.128	0.098	2024-01-02 18:12:34.198	0
0.975	-0.118	0.106	2024-01-02 18:12:34.288	0
1.0	-0.125	0.097	2024-01-02 18:12:34.406	0
0.986	-0.134	0.099	2024-01-02 18:12:34.567	0
0.97	-0.134	0.098	2024-01-02 18:12:34.617	0
0.973	-0.125	0.103	2024-01-02 18:12:34.676	0
0.968	-0.132	0.103	2024-01-02 18:12:34.796	0
0.976	-0.134	0.097	2024-01-02 18:12:34.917	0
0.98	-0.133	0.088	2024-01-02 18:12:35.800	0
0.985	-0.136	0.09	2024-01-02 18:12:35.970	0
0.981	-0.138	0.099	2024-01-02 18:12:35.217	0
0.972	-0.133	0.079	2024-01-02 18:12:35.308	0
0.981	-0.132	0.072	2024-01-02 18:12:35.427	0
0.999	-0.134	0.087	2024-01-02 18:12:35.485	0
1.004	-0.138	0.084	2024-01-02 18:12:35.607	0
0.995	-0.137	0.093	2024-01-02 18:12:35.696	0
0.994	-0.137	0.091	2024-01-02 18:12:35.817	0
0.991	-0.139	0.084	2024-01-02 18:12:35.906	0
0.979	-0.138	0.084	2024-01-02 18:12:36.270	0
0.982	-0.135	0.083	2024-01-02 18:12:36.850	0
0.987	-0.137	0.077	2024-01-02 18:12:36.208	0
0.986	-0.137	0.072	2024-01-02 18:12:36.297	0
0.978	-0.134	0.078	2024-01-02 18:12:36.417	0
0.987	-0.135	0.093	2024-01-02 18:12:36.543	0
0.985	-0.14	0.082	2024-01-02 18:12:36.627	0
0.989	-0.136	0.081	2024-01-02 18:12:36.716	0
0.989	-0.136	0.083	2024-01-02 18:12:36.843	0
0.989	-0.136	0.073	2024-01-02 18:12:36.928	0
0.987	-0.135	0.06	2024-01-02 18:12:37.190	0
1.0	-0.137	0.063	2024-01-02 18:12:37.144	0
0.992	-0.14	0.08	2024-01-02 18:12:37.228	0
0.992	-0.137	0.079	2024-01-02 18:12:37.368	0
0.985	-0.143	0.081	2024-01-02 18:12:37.440	0
0.976	-0.135	0.081	2024-01-02 18:12:37.498	0
0.977	-0.132	0.077	2024-01-02 18:12:37.678	0
0.994	-0.135	0.071	2024-01-02 18:12:37.709	0
1.0	-0.138	0.073	2024-01-02 18:12:37.830	0
0.989	-0.141	0.078	2024-01-02 18:12:37.920	0
0.984	-0.138	0.073	2024-01-02 18:12:38.430	0
1.0	-0.138	0.067	2024-01-02 18:12:38.130	0
1.013	-0.138	0.077	2024-01-02 18:12:38.269	0
0.995	-0.137	0.083	2024-01-02 18:12:38.309	0
0.985	-0.138	0.075	2024-01-02 18:12:38.429	0
0.988	-0.134	0.069	2024-01-02 18:12:38.520	0
0.989	-0.136	0.063	2024-01-02 18:12:38.643	0
0.98	-0.139	0.071	2024-01-02 18:12:38.730	0
0.984	-0.131	0.073	2024-01-02 18:12:38.867	0
0.999	-0.133	0.073	2024-01-02 18:12:38.910	0
1.0	-0.137	0.077	2024-01-02 18:12:39.660	0
0.98	-0.136	0.081	2024-01-02 18:12:39.120	0
0.971	-0.131	0.081	2024-01-02 18:12:39.245	0
0.984	-0.133	0.085	2024-01-02 18:12:39.330	0
0.998	-0.137	0.083	2024-01-02 18:12:39.466	0
1.0	-0.134	0.082	2024-01-02 18:12:39.540	0
0.991	-0.133	0.077	2024-01-02 18:12:39.669	0
0.986	-0.13	0.076	2024-01-02 18:12:39.720	0
0.99	-0.132	0.073	2024-01-02 18:12:39.844	0
0.993	-0.136	0.07	2024-01-02 18:12:39.930	0
0.993	-0.138	0.071	2024-01-02 18:12:40.780	0
0.989	-0.14	0.074	2024-01-02 18:12:40.139	0
0.987	-0.139	0.066	2024-01-02 18:12:40.273	0
0.988	-0.138	0.071	2024-01-02 18:12:40.320	0
0.977	-0.135	0.075	2024-01-02 18:12:40.438	0
0.97	-0.136	0.075	2024-01-02 18:12:40.529	0
0.997	-0.133	0.079	2024-01-02 18:12:40.664	0
1.018	-0.136	0.073	2024-01-02 18:12:40.739	0
0.994	-0.133	0.08	2024-01-02 18:12:40.871	0
0.972	-0.131	0.077	2024-01-02 18:12:40.969	0
0.994	-0.13	0.069	2024-01-02 18:12:41.690	0
1.002	-0.134	0.083	2024-01-02 18:12:41.130	0
0.976	-0.138	0.081	2024-01-02 18:12:41.269	0
0.976	-0.137	0.079	2024-01-02 18:12:41.339	0
0.998	-0.137	0.091	2024-01-02 18:12:41.471	0
0.996	-0.139	0.091	2024-01-02 18:12:41.571	0
0.972	-0.133	0.097	2024-01-02 18:12:41.669	0
0.98	-0.13	0.091	2024-01-02 18:12:41.730	0
1.0	-0.133	0.089	2024-01-02 18:12:41.878	0
0.983	-0.135	0.071	2024-01-02 18:12:41.939	0
0.982	-0.134	0.089	2024-01-02 18:12:42.700	0
1.001	-0.131	0.091	2024-01-02 18:12:42.183	0
1.006	-0.136	0.092	2024-01-02 18:12:42.269	0
0.995	-0.136	0.088	2024-01-02 18:12:42.378	0
0.994	-0.133	0.096	2024-01-02 18:12:42.478	0
0.998	-0.138	0.093	2024-01-02 18:12:42.543	0
0.982	-0.144	0.084	2024-01-02 18:12:42.672	0
0.965	-0.134	0.085	2024-01-02 18:12:42.770	0
0.99	-0.131	0.089	2024-01-02 18:12:42.867	0
0.999	-0.128	0.094	2024-01-02 18:12:42.971	0
0.99	-0.135	0.085	2024-01-02 18:12:43.780	0
0.983	-0.128	0.093	2024-01-02 18:12:43.143	0
0.973	-0.131	0.104	2024-01-02 18:12:43.288	0
0.976	-0.131	0.083	2024-01-02 18:12:43.378	0
1.001	-0.125	0.088	2024-01-02 18:12:43.484	0
1.01	-0.132	0.085	2024-01-02 18:12:43.557	0
0.966	-0.143	0.089	2024-01-02 18:12:43.676	0
0.976	-0.136	0.09	2024-01-02 18:12:43.768	0
0.972	-0.135	0.07	2024-01-02 18:12:43.888	0
1.019	-0.135	0.102	2024-01-02 18:12:43.972	0
0.988	-0.138	0.079	2024-01-02 18:12:44.680	0
0.959	-0.132	0.076	2024-01-02 18:12:44.186	0
0.984	-0.124	0.102	2024-01-02 18:12:44.308	0
1.012	-0.138	0.096	2024-01-02 18:12:44.366	0
1.014	-0.133	0.091	2024-01-02 18:12:44.488	0
0.958	-0.145	0.088	2024-01-02 18:12:44.569	0
0.976	-0.124	0.085	2024-01-02 18:12:44.668	0
0.992	-0.134	0.084	2024-01-02 18:12:44.788	0
0.987	-0.14	0.078	2024-01-02 18:12:44.878	0
0.995	-0.138	0.082	2024-01-02 18:12:44.968	0
1.0	-0.135	0.072	2024-01-02 18:12:45.880	0
1.013	-0.145	0.083	2024-01-02 18:12:45.178	0
0.981	-0.15	0.077	2024-01-02 18:12:45.297	0
0.986	-0.137	0.058	2024-01-02 18:12:45.371	0
0.995	-0.129	0.069	2024-01-02 18:12:45.478	0
0.998	-0.138	0.08	2024-01-02 18:12:45.568	0
0.995	-0.14	0.071	2024-01-02 18:12:45.688	0
1.006	-0.137	0.066	2024-01-02 18:12:45.777	0
1.016	-0.137	0.066	2024-01-02 18:12:45.898	0
0.987	-0.138	0.08	2024-01-02 18:12:45.969	0
0.976	-0.138	0.071	2024-01-02 18:12:46.760	0
0.978	-0.138	0.059	2024-01-02 18:12:46.169	0
0.989	-0.145	0.056	2024-01-02 18:12:46.286	0
0.988	-0.142	0.058	2024-01-02 18:12:46.376	0
1.006	-0.137	0.06	2024-01-02 18:12:46.495	0
1.004	-0.139	0.067	2024-01-02 18:12:46.585	0
1.002	-0.143	0.063	2024-01-02 18:12:46.706	0
0.995	-0.139	0.067	2024-01-02 18:12:46.766	0
0.994	-0.136	0.065	2024-01-02 18:12:47.246	0
1.008	-0.137	0.066	2024-01-02 18:12:47.246	0
0.996	-0.146	0.052	2024-01-02 18:12:47.246	0
0.979	-0.14	0.06	2024-01-02 18:12:47.246	0
0.985	-0.133	0.065	2024-01-02 18:12:47.307	0
1.02	-0.14	0.052	2024-01-02 18:15:50.202	0
0.99	-0.129	0.141	2024-01-02 18:15:50.278	0
0.974	-0.124	0.122	2024-01-02 18:15:50.398	0
0.991	-0.133	0.107	2024-01-02 18:15:50.489	0
0.977	-0.146	0.141	2024-01-02 18:15:50.604	0
0.978	-0.167	0.112	2024-01-02 18:15:50.666	0
1.006	-0.167	0.114	2024-01-02 18:15:50.786	0
1.003	-0.168	0.111	2024-01-02 18:15:50.877	0
0.934	-0.163	0.139	2024-01-02 18:15:51.270	0
0.888	-0.144	0.147	2024-01-02 18:15:51.840	0
0.958	-0.135	0.122	2024-01-02 18:15:51.207	0
0.965	-0.157	0.127	2024-01-02 18:15:51.266	0
0.976	-0.168	0.11	2024-01-02 18:15:51.385	0
0.965	-0.167	0.092	2024-01-02 18:15:51.492	0
1.004	-0.156	0.097	2024-01-02 18:15:51.596	0
1.014	-0.161	0.098	2024-01-02 18:15:51.684	0
1.031	-0.155	0.11	2024-01-02 18:15:51.836	0
0.947	-0.151	0.116	2024-01-02 18:15:51.895	0
0.925	-0.149	0.121	2024-01-02 18:15:52.160	0
1.006	-0.15	0.156	2024-01-02 18:15:52.830	0
1.067	-0.166	0.119	2024-01-02 18:15:52.226	0
1.032	-0.168	0.11	2024-01-02 18:15:52.316	0
1.002	-0.171	0.104	2024-01-02 18:15:52.407	0
0.962	-0.159	0.084	2024-01-02 18:15:52.500	0
0.954	-0.155	0.079	2024-01-02 18:15:52.617	0
0.973	-0.172	0.052	2024-01-02 18:15:52.707	0
0.989	-0.17	0.055	2024-01-02 18:15:52.826	0
0.988	-0.161	0.081	2024-01-02 18:15:52.884	0
0.983	-0.158	0.097	2024-01-02 18:15:53.600	0
1.014	-0.165	0.115	2024-01-02 18:15:53.950	0
0.981	-0.143	0.094	2024-01-02 18:15:53.216	0
1.021	-0.145	0.082	2024-01-02 18:15:53.306	0
0.999	-0.162	0.079	2024-01-02 18:15:53.426	0
0.964	-0.167	0.069	2024-01-02 18:15:53.485	0
0.963	-0.161	0.065	2024-01-02 18:15:53.605	0
0.972	-0.153	0.079	2024-01-02 18:15:53.695	0
0.991	-0.152	0.082	2024-01-02 18:15:53.818	0
1.007	-0.154	0.086	2024-01-02 18:15:53.909	0
1.014	-0.159	0.088	2024-01-02 18:15:54.270	0
0.996	-0.171	0.087	2024-01-02 18:15:54.870	0
0.989	-0.156	0.091	2024-01-02 18:15:54.209	0
0.993	-0.158	0.083	2024-01-02 18:15:54.298	0
0.994	-0.156	0.059	2024-01-02 18:15:54.418	0
0.985	-0.17	0.052	2024-01-02 18:15:54.509	0
0.977	-0.157	0.068	2024-01-02 18:15:54.636	0
0.977	-0.156	0.089	2024-01-02 18:15:54.719	0
0.975	-0.146	0.089	2024-01-02 18:15:54.838	0
0.983	-0.152	0.086	2024-01-02 18:15:54.898	0
0.99	-0.154	0.081	2024-01-02 18:15:55.190	0
0.985	-0.156	0.073	2024-01-02 18:15:55.109	0
0.982	-0.156	0.07	2024-01-02 18:15:55.228	0
0.986	-0.163	0.068	2024-01-02 18:15:55.319	0
0.989	-0.161	0.07	2024-01-02 18:15:55.437	0
0.973	-0.159	0.078	2024-01-02 18:15:55.498	0
0.961	-0.156	0.08	2024-01-02 18:15:55.619	0
0.98	-0.152	0.072	2024-01-02 18:15:55.709	0
0.996	-0.156	0.064	2024-01-02 18:15:55.838	0
0.978	-0.159	0.059	2024-01-02 18:15:55.919	0
0.98	-0.153	0.062	2024-01-02 18:15:56.390	0
0.997	-0.154	0.068	2024-01-02 18:15:56.136	0
1.011	-0.159	0.067	2024-01-02 18:15:56.263	0
0.989	-0.165	0.07	2024-01-02 18:15:56.310	0
0.967	-0.162	0.069	2024-01-02 18:15:56.429	0
0.989	-0.154	0.068	2024-01-02 18:15:56.519	0
0.993	-0.156	0.066	2024-01-02 18:15:56.667	0
0.979	-0.162	0.07	2024-01-02 18:15:56.729	0
0.98	-0.153	0.075	2024-01-02 18:15:56.862	0
1.001	-0.154	0.074	2024-01-02 18:15:56.909	0
1.012	-0.156	0.078	2024-01-02 18:15:57.280	0
0.98	-0.163	0.069	2024-01-02 18:15:57.164	0
0.951	-0.156	0.067	2024-01-02 18:15:57.240	0
0.978	-0.149	0.069	2024-01-02 18:15:57.329	0
1.003	-0.162	0.075	2024-01-02 18:15:57.465	0
0.988	-0.167	0.073	2024-01-02 18:15:57.572	0
0.965	-0.159	0.073	2024-01-02 18:15:57.668	0
0.979	-0.151	0.063	2024-01-02 18:15:57.716	0
0.985	-0.156	0.076	2024-01-02 18:15:57.838	0
0.983	-0.16	0.079	2024-01-02 18:15:57.928	0
0.977	-0.162	0.076	2024-01-02 18:15:58.480	0
0.98	-0.157	0.084	2024-01-02 18:15:58.138	0
0.992	-0.153	0.098	2024-01-02 18:15:58.262	0
0.986	-0.158	0.092	2024-01-02 18:15:58.319	0
0.979	-0.155	0.091	2024-01-02 18:15:58.438	0
0.969	-0.149	0.097	2024-01-02 18:15:58.527	0
0.978	-0.15	0.105	2024-01-02 18:15:58.652	0
0.978	-0.151	0.104	2024-01-02 18:15:58.738	0
0.982	-0.157	0.09	2024-01-02 18:15:58.859	0
0.977	-0.154	0.089	2024-01-02 18:15:58.957	0
0.98	-0.154	0.094	2024-01-02 18:15:59.680	0
0.988	-0.155	0.086	2024-01-02 18:15:59.128	0
0.991	-0.154	0.08	2024-01-02 18:15:59.255	0
0.98	-0.153	0.075	2024-01-02 18:15:59.338	0
0.979	-0.155	0.075	2024-01-02 18:15:59.460	0
0.996	-0.156	0.077	2024-01-02 18:15:59.552	0
0.994	-0.161	0.083	2024-01-02 18:15:59.666	0
0.977	-0.162	0.082	2024-01-02 18:15:59.727	0
0.968	-0.159	0.087	2024-01-02 18:15:59.854	0
0.981	-0.146	0.089	2024-01-02 18:15:59.938	0
0.986	-0.154	0.077	2024-01-02 18:16:00.580	0
0.98	-0.157	0.074	2024-01-02 18:16:00.160	0
0.979	-0.155	0.083	2024-01-02 18:16:00.266	0
0.979	-0.154	0.083	2024-01-02 18:16:00.357	0
0.981	-0.157	0.079	2024-01-02 18:16:00.480	0
0.983	-0.159	0.084	2024-01-02 18:16:00.536	0
0.988	-0.16	0.078	2024-01-02 18:16:00.654	0
0.979	-0.156	0.083	2024-01-02 18:16:00.762	0
0.977	-0.152	0.085	2024-01-02 18:16:00.866	0
0.989	-0.152	0.088	2024-01-02 18:16:00.957	0
1.006	-0.157	0.092	2024-01-02 18:16:01.800	0
0.997	-0.168	0.092	2024-01-02 18:16:01.150	0
0.982	-0.171	0.087	2024-01-02 18:16:01.259	0
0.979	-0.175	0.088	2024-01-02 18:16:01.359	0
0.983	-0.176	0.08	2024-01-02 18:16:01.469	0
0.975	-0.186	0.081	2024-01-02 18:16:01.559	0
0.961	-0.187	0.078	2024-01-02 18:16:01.679	0
0.978	-0.197	0.081	2024-01-02 18:16:01.768	0
0.994	-0.205	0.088	2024-01-02 18:16:01.888	0
0.988	-0.216	0.087	2024-01-02 18:16:01.960	0
0.973	-0.212	0.083	2024-01-02 18:16:02.690	0
0.959	-0.202	0.089	2024-01-02 18:16:02.160	0
0.968	-0.2	0.092	2024-01-02 18:16:02.282	0
0.982	-0.207	0.085	2024-01-02 18:16:02.368	0
0.986	-0.214	0.08	2024-01-02 18:16:02.489	0
0.984	-0.21	0.086	2024-01-02 18:16:02.558	0
0.979	-0.204	0.088	2024-01-02 18:16:02.668	0
0.976	-0.2	0.084	2024-01-02 18:16:02.758	0
0.975	-0.196	0.08	2024-01-02 18:16:02.881	0
0.972	-0.192	0.086	2024-01-02 18:16:02.998	0
0.979	-0.19	0.09	2024-01-02 18:16:03.117	0
0.992	-0.192	0.091	2024-01-02 18:16:03.179	0
0.98	-0.196	0.091	2024-01-02 18:16:03.299	0
0.978	-0.191	0.09	2024-01-02 18:16:03.361	0
0.979	-0.191	0.082	2024-01-02 18:16:03.480	0
0.979	-0.19	0.084	2024-01-02 18:16:03.598	0
0.978	-0.192	0.089	2024-01-02 18:16:03.689	0
0.977	-0.193	0.093	2024-01-02 18:16:03.779	0
0.983	-0.194	0.087	2024-01-02 18:16:03.898	0
0.975	-0.191	0.086	2024-01-02 18:16:03.961	0
0.979	-0.191	0.08	2024-01-02 18:16:04.790	0
0.978	-0.195	0.083	2024-01-02 18:16:04.168	0
0.983	-0.197	0.089	2024-01-02 18:16:04.288	0
0.981	-0.196	0.091	2024-01-02 18:16:04.379	0
0.981	-0.201	0.085	2024-01-02 18:16:04.497	0
0.969	-0.208	0.087	2024-01-02 18:16:04.588	0
0.971	-0.208	0.08	2024-01-02 18:16:04.710	0
0.982	-0.209	0.082	2024-01-02 18:16:04.769	0
0.983	-0.211	0.087	2024-01-02 18:16:04.888	0
0.988	-0.229	0.084	2024-01-02 18:16:04.978	0
0.967	-0.241	0.091	2024-01-02 18:16:05.980	0
0.969	-0.236	0.091	2024-01-02 18:16:05.217	0
0.977	-0.234	0.084	2024-01-02 18:16:05.306	0
0.98	-0.23	0.087	2024-01-02 18:16:05.364	0
0.978	-0.229	0.094	2024-01-02 18:16:05.487	0
0.971	-0.243	0.088	2024-01-02 18:16:05.581	0
0.964	-0.246	0.106	2024-01-02 18:16:05.696	0
0.967	-0.223	0.09	2024-01-02 18:16:05.786	0
0.981	-0.231	0.077	2024-01-02 18:16:05.907	0
0.974	-0.233	0.076	2024-01-02 18:16:05.996	0
0.966	-0.233	0.08	2024-01-02 18:16:06.116	0
0.961	-0.237	0.092	2024-01-02 18:16:06.180	0
0.971	-0.231	0.097	2024-01-02 18:16:06.300	0
0.979	-0.231	0.088	2024-01-02 18:16:06.385	0
0.987	-0.233	0.091	2024-01-02 18:16:06.507	0
0.991	-0.228	0.075	2024-01-02 18:16:06.596	0
1.001	-0.229	0.069	2024-01-02 18:16:06.717	0
0.98	-0.224	0.076	2024-01-02 18:16:06.779	0
0.958	-0.215	0.085	2024-01-02 18:16:06.899	0
0.973	-0.211	0.083	2024-01-02 18:16:06.989	0
0.995	-0.215	0.082	2024-01-02 18:16:07.106	0
1.002	-0.211	0.088	2024-01-02 18:16:07.198	0
0.991	-0.216	0.086	2024-01-02 18:16:07.321	0
0.975	-0.208	0.09	2024-01-02 18:16:07.406	0
0.972	-0.205	0.086	2024-01-02 18:16:07.535	0
0.999	-0.208	0.09	2024-01-02 18:16:07.589	0
1.013	-0.212	0.099	2024-01-02 18:16:07.707	0
0.992	-0.21	0.106	2024-01-02 18:16:07.798	0
0.959	-0.205	0.104	2024-01-02 18:16:07.919	0
0.95	-0.205	0.093	2024-01-02 18:16:08.100	0
0.977	-0.206	0.094	2024-01-02 18:16:08.158	0
1.001	-0.204	0.102	2024-01-02 18:16:08.189	0
0.99	-0.216	0.094	2024-01-02 18:16:08.309	0
0.982	-0.219	0.104	2024-01-02 18:16:08.398	0
0.957	-0.212	0.109	2024-01-02 18:16:08.519	0
0.958	-0.221	0.097	2024-01-02 18:16:08.609	0
0.99	-0.214	0.096	2024-01-02 18:16:08.729	0
0.995	-0.209	0.107	2024-01-02 18:16:08.820	0
0.989	-0.235	0.094	2024-01-02 18:16:08.940	0
0.976	-0.233	0.097	2024-01-02 18:16:08.999	0
0.963	-0.225	0.095	2024-01-02 18:16:09.117	0
0.954	-0.229	0.093	2024-01-02 18:16:09.209	0
0.967	-0.222	0.092	2024-01-02 18:16:09.329	0
0.985	-0.22	0.106	2024-01-02 18:16:09.419	0
0.981	-0.232	0.108	2024-01-02 18:16:09.539	0
0.973	-0.239	0.107	2024-01-02 18:16:09.598	0
0.969	-0.23	0.099	2024-01-02 18:16:09.719	0
0.975	-0.228	0.103	2024-01-02 18:16:09.809	0
0.965	-0.228	0.093	2024-01-02 18:16:09.928	0
0.968	-0.229	0.101	2024-01-02 18:16:10.170	0
0.978	-0.231	0.104	2024-01-02 18:16:10.135	0
0.978	-0.233	0.104	2024-01-02 18:16:10.229	0
0.969	-0.229	0.096	2024-01-02 18:16:10.358	0
0.965	-0.224	0.09	2024-01-02 18:16:10.440	0
0.974	-0.212	0.1	2024-01-02 18:16:10.528	0
0.987	-0.209	0.107	2024-01-02 18:16:10.616	0
0.987	-0.207	0.105	2024-01-02 18:16:10.739	0
0.973	-0.206	0.097	2024-01-02 18:16:10.829	0
0.976	-0.194	0.087	2024-01-02 18:16:10.954	0
0.987	-0.197	0.087	2024-01-02 18:16:11.150	0
0.983	-0.197	0.083	2024-01-02 18:16:11.127	0
0.978	-0.197	0.084	2024-01-02 18:16:11.217	0
0.978	-0.197	0.092	2024-01-02 18:16:11.337	0
0.973	-0.193	0.085	2024-01-02 18:16:11.427	0
0.979	-0.191	0.083	2024-01-02 18:16:11.556	0
0.977	-0.19	0.091	2024-01-02 18:16:11.636	0
0.976	-0.188	0.096	2024-01-02 18:16:11.759	0
0.978	-0.186	0.101	2024-01-02 18:16:11.820	0
0.979	-0.185	0.087	2024-01-02 18:16:11.937	0
0.975	-0.19	0.082	2024-01-02 18:16:12.630	0
0.981	-0.188	0.08	2024-01-02 18:16:12.161	0
0.976	-0.188	0.082	2024-01-02 18:16:12.236	0
0.982	-0.187	0.075	2024-01-02 18:16:12.361	0
0.981	-0.188	0.074	2024-01-02 18:16:12.420	0
0.989	-0.191	0.081	2024-01-02 18:16:12.536	0
0.988	-0.191	0.081	2024-01-02 18:16:12.629	0
0.977	-0.191	0.077	2024-01-02 18:16:12.754	0
0.968	-0.189	0.074	2024-01-02 18:16:12.838	0
0.975	-0.187	0.078	2024-01-02 18:16:12.960	0
0.989	-0.19	0.072	2024-01-02 18:16:13.670	0
0.976	-0.194	0.072	2024-01-02 18:16:13.166	0
0.977	-0.193	0.061	2024-01-02 18:16:13.226	0
0.976	-0.187	0.066	2024-01-02 18:16:13.357	0
0.979	-0.183	0.064	2024-01-02 18:16:13.437	0
0.988	-0.191	0.07	2024-01-02 18:16:13.558	0
0.988	-0.193	0.072	2024-01-02 18:16:13.665	0
0.983	-0.19	0.075	2024-01-02 18:16:13.765	0
0.981	-0.19	0.07	2024-01-02 18:16:13.827	0
0.975	-0.188	0.064	2024-01-02 18:16:13.958	0
0.979	-0.192	0.072	2024-01-02 18:16:14.370	0
0.979	-0.188	0.073	2024-01-02 18:16:14.161	0
0.986	-0.191	0.07	2024-01-02 18:16:14.264	0
0.98	-0.189	0.068	2024-01-02 18:16:14.365	0
0.982	-0.191	0.067	2024-01-02 18:16:14.461	0
0.975	-0.193	0.063	2024-01-02 18:16:14.581	0
0.977	-0.192	0.068	2024-01-02 18:16:14.636	0
0.988	-0.192	0.068	2024-01-02 18:16:14.759	0
0.983	-0.191	0.068	2024-01-02 18:16:14.859	0
0.98	-0.191	0.066	2024-01-02 18:16:14.968	0
0.98	-0.19	0.068	2024-01-02 18:16:15.630	0
0.97	-0.192	0.062	2024-01-02 18:16:15.181	0
0.978	-0.191	0.062	2024-01-02 18:16:15.239	0
0.983	-0.195	0.062	2024-01-02 18:16:15.360	0
0.994	-0.192	0.07	2024-01-02 18:16:15.459	0
0.986	-0.192	0.066	2024-01-02 18:16:15.566	0
0.983	-0.186	0.071	2024-01-02 18:16:15.662	0
0.984	-0.189	0.069	2024-01-02 18:16:15.782	0
0.989	-0.195	0.059	2024-01-02 18:16:15.868	0
0.984	-0.193	0.056	2024-01-02 18:16:16.180	0
0.975	-0.187	0.06	2024-01-02 18:16:16.600	0
0.971	-0.174	0.067	2024-01-02 18:16:16.169	0
0.976	-0.176	0.067	2024-01-02 18:16:16.262	0
0.984	-0.179	0.064	2024-01-02 18:16:16.379	0
0.988	-0.185	0.072	2024-01-02 18:16:16.468	0
0.994	-0.189	0.068	2024-01-02 18:16:16.588	0
0.98	-0.182	0.07	2024-01-02 18:16:16.662	0
0.973	-0.182	0.067	2024-01-02 18:16:16.772	0
0.975	-0.182	0.064	2024-01-02 18:16:16.861	0
0.981	-0.178	0.063	2024-01-02 18:16:16.982	0
0.991	-0.185	0.06	2024-01-02 18:16:17.680	0
0.981	-0.185	0.062	2024-01-02 18:16:17.187	0
0.982	-0.182	0.066	2024-01-02 18:16:17.278	0
0.982	-0.185	0.066	2024-01-02 18:16:17.398	0
0.977	-0.185	0.067	2024-01-02 18:16:17.460	0
0.978	-0.182	0.068	2024-01-02 18:16:17.575	0
0.989	-0.185	0.069	2024-01-02 18:16:17.667	0
0.993	-0.183	0.071	2024-01-02 18:16:17.787	0
0.985	-0.184	0.071	2024-01-02 18:16:17.882	0
0.978	-0.184	0.072	2024-01-02 18:16:17.998	0
0.99	-0.182	0.079	2024-01-02 18:16:18.600	0
0.978	-0.183	0.081	2024-01-02 18:16:18.181	0
0.993	-0.183	0.075	2024-01-02 18:16:18.268	0
0.99	-0.183	0.076	2024-01-02 18:16:18.389	0
0.982	-0.183	0.072	2024-01-02 18:16:18.478	0
0.975	-0.183	0.067	2024-01-02 18:16:18.597	0
0.974	-0.183	0.066	2024-01-02 18:16:18.686	0
0.979	-0.181	0.066	2024-01-02 18:16:18.809	0
0.982	-0.18	0.069	2024-01-02 18:16:18.867	0
0.984	-0.18	0.077	2024-01-02 18:16:18.987	0
0.988	-0.178	0.079	2024-01-02 18:16:19.760	0
0.987	-0.178	0.083	2024-01-02 18:16:19.198	0
0.972	-0.182	0.084	2024-01-02 18:16:19.288	0
0.986	-0.182	0.083	2024-01-02 18:16:19.409	0
1.003	-0.187	0.087	2024-01-02 18:16:19.467	0
0.974	-0.195	0.083	2024-01-02 18:16:19.588	0
0.981	-0.187	0.077	2024-01-02 18:16:19.679	0
0.985	-0.187	0.075	2024-01-02 18:16:19.797	0
0.973	-0.187	0.079	2024-01-02 18:16:19.888	0
0.968	-0.186	0.074	2024-01-02 18:16:20.900	0
0.971	-0.184	0.074	2024-01-02 18:16:20.980	0
0.974	-0.187	0.084	2024-01-02 18:16:20.219	0
0.983	-0.184	0.086	2024-01-02 18:16:20.277	0
0.988	-0.188	0.083	2024-01-02 18:16:20.429	0
0.973	-0.186	0.088	2024-01-02 18:16:20.486	0
0.981	-0.181	0.082	2024-01-02 18:16:20.607	0
0.984	-0.185	0.086	2024-01-02 18:16:20.696	0
0.975	-0.187	0.086	2024-01-02 18:16:20.819	0
0.986	-0.184	0.085	2024-01-02 18:16:20.874	0
0.995	-0.188	0.083	2024-01-02 18:16:20.998	0
0.986	-0.19	0.085	2024-01-02 18:16:21.880	0
0.98	-0.188	0.078	2024-01-02 18:16:21.208	0
0.979	-0.185	0.075	2024-01-02 18:16:21.297	0
0.966	-0.187	0.08	2024-01-02 18:16:21.419	0
0.974	-0.186	0.083	2024-01-02 18:16:21.506	0
0.987	-0.184	0.083	2024-01-02 18:16:21.626	0
0.982	-0.188	0.085	2024-01-02 18:16:21.686	0
0.973	-0.188	0.085	2024-01-02 18:16:21.806	0
0.987	-0.188	0.088	2024-01-02 18:16:21.896	0
0.984	-0.188	0.088	2024-01-02 18:16:22.160	0
0.969	-0.188	0.082	2024-01-02 18:16:22.107	0
0.982	-0.185	0.081	2024-01-02 18:16:22.226	0
0.986	-0.185	0.083	2024-01-02 18:16:22.284	0
0.984	-0.187	0.079	2024-01-02 18:16:22.405	0
0.986	-0.186	0.077	2024-01-02 18:16:22.496	0
0.982	-0.188	0.077	2024-01-02 18:16:22.615	0
0.986	-0.188	0.081	2024-01-02 18:16:22.706	0
0.979	-0.183	0.074	2024-01-02 18:16:22.826	0
0.989	-0.187	0.083	2024-01-02 18:16:22.917	0
0.98	-0.188	0.087	2024-01-02 18:16:23.440	0
0.979	-0.188	0.089	2024-01-02 18:16:23.970	0
0.981	-0.182	0.093	2024-01-02 18:16:23.219	0
0.99	-0.187	0.092	2024-01-02 18:16:23.305	0
0.978	-0.187	0.09	2024-01-02 18:16:23.428	0
0.975	-0.188	0.084	2024-01-02 18:16:23.518	0
0.983	-0.186	0.081	2024-01-02 18:16:23.642	0
0.981	-0.189	0.081	2024-01-02 18:16:23.728	0
0.973	-0.186	0.079	2024-01-02 18:16:23.819	0
0.981	-0.188	0.076	2024-01-02 18:16:23.908	0
0.986	-0.187	0.076	2024-01-02 18:16:24.280	0
0.979	-0.188	0.081	2024-01-02 18:16:24.115	0
0.972	-0.187	0.083	2024-01-02 18:16:24.244	0
0.978	-0.188	0.08	2024-01-02 18:16:24.328	0
0.98	-0.185	0.085	2024-01-02 18:16:24.460	0
0.983	-0.189	0.093	2024-01-02 18:16:24.510	0
0.987	-0.187	0.094	2024-01-02 18:16:24.628	0
0.984	-0.188	0.09	2024-01-02 18:16:24.718	0
0.976	-0.189	0.091	2024-01-02 18:16:24.836	0
0.978	-0.185	0.091	2024-01-02 18:16:24.929	0
0.985	-0.188	0.086	2024-01-02 18:16:25.610	0
0.99	-0.187	0.083	2024-01-02 18:16:25.110	0
0.981	-0.192	0.083	2024-01-02 18:16:25.228	0
0.972	-0.189	0.08	2024-01-02 18:16:25.319	0
0.977	-0.187	0.08	2024-01-02 18:16:25.438	0
0.983	-0.191	0.081	2024-01-02 18:16:25.538	0
0.981	-0.188	0.083	2024-01-02 18:16:25.671	0
0.976	-0.188	0.083	2024-01-02 18:16:25.738	0
0.977	-0.188	0.083	2024-01-02 18:16:25.863	0
0.978	-0.188	0.084	2024-01-02 18:16:25.919	0
0.982	-0.189	0.086	2024-01-02 18:16:26.360	0
0.98	-0.187	0.087	2024-01-02 18:16:26.132	0
0.976	-0.186	0.086	2024-01-02 18:16:26.262	0
0.979	-0.189	0.087	2024-01-02 18:16:26.340	0
0.98	-0.192	0.089	2024-01-02 18:16:26.489	0
0.983	-0.189	0.091	2024-01-02 18:16:26.523	0
0.98	-0.188	0.089	2024-01-02 18:16:26.638	0
0.975	-0.19	0.086	2024-01-02 18:16:26.730	0
0.976	-0.192	0.091	2024-01-02 18:16:26.861	0
0.977	-0.207	0.092	2024-01-02 18:16:26.940	0
0.977	-0.207	0.087	2024-01-02 18:16:27.630	0
0.972	-0.219	0.089	2024-01-02 18:16:27.167	0
0.969	-0.226	0.091	2024-01-02 18:16:27.268	0
0.972	-0.225	0.088	2024-01-02 18:16:27.329	0
0.983	-0.229	0.09	2024-01-02 18:16:27.461	0
0.978	-0.242	0.093	2024-01-02 18:16:27.564	0
0.97	-0.239	0.094	2024-01-02 18:16:27.665	0
0.969	-0.236	0.091	2024-01-02 18:16:27.765	0
0.973	-0.237	0.093	2024-01-02 18:16:27.869	0
0.981	-0.237	0.094	2024-01-02 18:16:27.929	0
0.979	-0.237	0.094	2024-01-02 18:16:28.550	0
0.97	-0.239	0.093	2024-01-02 18:16:28.140	0
0.971	-0.236	0.091	2024-01-02 18:16:28.264	0
0.977	-0.233	0.096	2024-01-02 18:16:28.370	0
0.977	-0.232	0.096	2024-01-02 18:16:28.498	0
0.973	-0.235	0.093	2024-01-02 18:16:28.563	0
0.972	-0.232	0.091	2024-01-02 18:16:28.683	0
0.973	-0.232	0.096	2024-01-02 18:16:28.739	0
0.972	-0.229	0.094	2024-01-02 18:16:28.859	0
0.972	-0.229	0.092	2024-01-02 18:16:28.969	0
0.978	-0.225	0.091	2024-01-02 18:16:29.970	0
0.984	-0.217	0.09	2024-01-02 18:16:29.165	0
0.978	-0.216	0.087	2024-01-02 18:16:29.278	0
0.972	-0.214	0.09	2024-01-02 18:16:29.340	0
0.973	-0.212	0.09	2024-01-02 18:16:29.463	0
0.976	-0.213	0.088	2024-01-02 18:16:29.570	0
0.977	-0.208	0.087	2024-01-02 18:16:29.669	0
0.977	-0.202	0.091	2024-01-02 18:16:29.765	0
0.978	-0.206	0.091	2024-01-02 18:16:29.879	0
0.975	-0.208	0.09	2024-01-02 18:16:29.968	0
0.976	-0.208	0.089	2024-01-02 18:16:30.166	0
0.976	-0.207	0.091	2024-01-02 18:16:30.166	0
0.978	-0.205	0.091	2024-01-02 18:16:30.270	0
0.979	-0.204	0.091	2024-01-02 18:16:30.364	0
0.976	-0.205	0.092	2024-01-02 18:16:30.482	0
0.977	-0.205	0.091	2024-01-02 18:16:30.571	0
0.977	-0.204	0.093	2024-01-02 18:16:30.688	0
0.978	-0.205	0.091	2024-01-02 18:16:30.764	0
0.977	-0.205	0.092	2024-01-02 18:16:30.869	0
0.979	-0.204	0.092	2024-01-02 18:16:30.967	0
0.978	-0.206	0.091	2024-01-02 18:16:31.830	0
0.978	-0.205	0.09	2024-01-02 18:16:31.169	0
0.979	-0.202	0.091	2024-01-02 18:16:31.288	0
0.981	-0.199	0.091	2024-01-02 18:16:31.377	0
0.981	-0.194	0.09	2024-01-02 18:16:31.499	0
0.983	-0.183	0.088	2024-01-02 18:16:31.564	0
0.985	-0.186	0.088	2024-01-02 18:16:31.683	0
0.985	-0.179	0.086	2024-01-02 18:16:31.771	0
0.981	-0.18	0.086	2024-01-02 18:16:31.888	0
0.978	-0.184	0.086	2024-01-02 18:16:31.979	0
0.983	-0.175	0.084	2024-01-02 18:16:32.990	0
0.984	-0.17	0.086	2024-01-02 18:16:32.160	0
0.983	-0.177	0.087	2024-01-02 18:16:32.282	0
0.984	-0.164	0.085	2024-01-02 18:16:32.373	0
0.985	-0.163	0.085	2024-01-02 18:16:32.487	0
0.988	-0.158	0.085	2024-01-02 18:16:32.574	0
0.99	-0.157	0.086	2024-01-02 18:16:32.728	0
0.982	-0.149	0.084	2024-01-02 18:16:32.788	0
0.981	-0.156	0.086	2024-01-02 18:16:32.909	0
0.984	-0.149	0.083	2024-01-02 18:16:32.968	0
0.984	-0.154	0.087	2024-01-02 18:16:33.860	0
0.981	-0.16	0.087	2024-01-02 18:16:33.176	0
0.979	-0.164	0.087	2024-01-02 18:16:33.298	0
0.982	-0.171	0.088	2024-01-02 18:16:33.387	0
0.984	-0.173	0.088	2024-01-02 18:16:33.508	0
0.981	-0.172	0.086	2024-01-02 18:16:33.567	0
0.981	-0.176	0.087	2024-01-02 18:16:33.685	0
0.982	-0.179	0.087	2024-01-02 18:16:33.780	0
0.983	-0.181	0.088	2024-01-02 18:16:33.898	0
0.984	-0.181	0.088	2024-01-02 18:16:33.987	0
0.979	-0.181	0.089	2024-01-02 18:16:34.107	0
0.98	-0.185	0.088	2024-01-02 18:16:34.197	0
0.979	-0.192	0.089	2024-01-02 18:16:34.317	0
0.979	-0.2	0.09	2024-01-02 18:16:34.375	0
0.978	-0.21	0.091	2024-01-02 18:16:34.495	0
0.975	-0.213	0.092	2024-01-02 18:16:34.586	0
0.974	-0.218	0.092	2024-01-02 18:16:34.707	0
0.972	-0.226	0.092	2024-01-02 18:16:34.798	0
0.973	-0.232	0.093	2024-01-02 18:16:34.917	0
0.976	-0.235	0.095	2024-01-02 18:16:34.975	0
0.973	-0.238	0.096	2024-01-02 18:16:35.970	0
0.972	-0.239	0.095	2024-01-02 18:16:35.187	0
0.972	-0.239	0.093	2024-01-02 18:16:35.307	0
0.972	-0.241	0.094	2024-01-02 18:16:35.398	0
0.971	-0.243	0.094	2024-01-02 18:16:35.517	0
0.973	-0.242	0.094	2024-01-02 18:16:35.609	0
0.972	-0.242	0.095	2024-01-02 18:16:35.728	0
0.973	-0.241	0.096	2024-01-02 18:16:35.818	0
0.971	-0.238	0.093	2024-01-02 18:16:35.908	0
0.967	-0.238	0.094	2024-01-02 18:16:35.997	0
0.971	-0.236	0.094	2024-01-02 18:16:36.117	0
0.974	-0.229	0.092	2024-01-02 18:16:36.209	0
0.977	-0.219	0.09	2024-01-02 18:16:36.327	0
0.977	-0.213	0.092	2024-01-02 18:16:36.384	0
0.971	-0.205	0.091	2024-01-02 18:16:36.509	0
0.968	-0.2	0.091	2024-01-02 18:16:36.595	0
0.978	-0.19	0.09	2024-01-02 18:16:36.718	0
0.988	-0.182	0.091	2024-01-02 18:16:36.808	0
0.983	-0.178	0.089	2024-01-02 18:16:36.926	0
0.98	-0.178	0.09	2024-01-02 18:16:37.190	0
0.984	-0.183	0.089	2024-01-02 18:16:37.137	0
0.985	-0.181	0.088	2024-01-02 18:16:37.196	0
0.978	-0.175	0.089	2024-01-02 18:16:37.319	0
0.983	-0.179	0.088	2024-01-02 18:16:37.409	0
0.983	-0.177	0.087	2024-01-02 18:16:37.536	0
0.985	-0.176	0.086	2024-01-02 18:16:37.617	0
0.991	-0.142	0.085	2024-01-02 18:16:37.736	0
0.993	-0.121	0.082	2024-01-02 18:16:37.796	0
0.99	-0.123	0.081	2024-01-02 18:16:37.919	0
0.984	-0.125	0.082	2024-01-02 18:16:38.800	0
0.985	-0.148	0.084	2024-01-02 18:16:38.129	0
0.991	-0.137	0.083	2024-01-02 18:16:38.218	0
0.991	-0.124	0.082	2024-01-02 18:16:38.339	0
0.986	-0.14	0.083	2024-01-02 18:16:38.430	0
0.987	-0.136	0.081	2024-01-02 18:16:38.565	0
0.988	-0.129	0.083	2024-01-02 18:16:38.610	0
0.987	-0.138	0.086	2024-01-02 18:16:38.729	0
0.986	-0.134	0.083	2024-01-02 18:16:38.818	0
0.986	-0.133	0.083	2024-01-02 18:16:38.939	0
0.989	-0.136	0.083	2024-01-02 18:16:39.290	0
0.987	-0.134	0.083	2024-01-02 18:16:39.176	0
0.987	-0.134	0.084	2024-01-02 18:16:39.208	0
0.989	-0.135	0.086	2024-01-02 18:16:39.330	0
0.985	-0.137	0.083	2024-01-02 18:16:39.419	0
0.987	-0.136	0.082	2024-01-02 18:16:39.539	0
0.986	-0.136	0.085	2024-01-02 18:16:39.629	0
0.987	-0.135	0.085	2024-01-02 18:16:39.765	0
0.986	-0.136	0.084	2024-01-02 18:16:39.840	0
0.986	-0.137	0.079	2024-01-02 18:16:39.967	0
0.988	-0.133	0.078	2024-01-02 18:16:40.200	0
0.988	-0.135	0.084	2024-01-02 18:16:40.139	0
0.988	-0.135	0.083	2024-01-02 18:16:40.227	0
0.989	-0.135	0.083	2024-01-02 18:16:40.365	0
0.989	-0.135	0.083	2024-01-02 18:16:40.440	0
0.986	-0.135	0.083	2024-01-02 18:16:40.567	0
0.986	-0.136	0.082	2024-01-02 18:16:40.619	0
0.989	-0.134	0.082	2024-01-02 18:16:40.740	0
0.991	-0.135	0.084	2024-01-02 18:16:40.827	0
0.986	-0.135	0.083	2024-01-02 18:16:40.965	0
0.988	-0.135	0.081	2024-01-02 18:16:41.390	0
0.988	-0.134	0.084	2024-01-02 18:16:41.163	0
0.987	-0.136	0.083	2024-01-02 18:16:41.273	0
0.988	-0.135	0.084	2024-01-02 18:16:41.372	0
0.988	-0.135	0.083	2024-01-02 18:16:41.429	0
0.991	-0.136	0.083	2024-01-02 18:16:41.565	0
0.989	-0.136	0.084	2024-01-02 18:16:41.638	0
0.985	-0.135	0.083	2024-01-02 18:16:41.767	0
0.989	-0.135	0.082	2024-01-02 18:16:41.864	0
0.991	-0.136	0.085	2024-01-02 18:16:41.971	0
0.989	-0.135	0.082	2024-01-02 18:16:42.270	0
0.983	-0.136	0.082	2024-01-02 18:16:42.167	0
0.982	-0.134	0.081	2024-01-02 18:16:42.237	0
0.99	-0.136	0.083	2024-01-02 18:16:42.375	0
0.986	-0.137	0.084	2024-01-02 18:16:42.471	0
0.989	-0.134	0.082	2024-01-02 18:16:42.568	0
0.986	-0.134	0.085	2024-01-02 18:16:42.669	0
0.985	-0.136	0.084	2024-01-02 18:16:42.775	0
0.985	-0.134	0.083	2024-01-02 18:16:42.836	0
0.985	-0.134	0.085	2024-01-02 18:16:42.970	0
0.985	-0.133	0.085	2024-01-02 18:16:43.730	0
0.985	-0.134	0.083	2024-01-02 18:16:43.168	0
0.989	-0.135	0.082	2024-01-02 18:16:43.268	0
0.981	-0.134	0.085	2024-01-02 18:16:43.375	0
0.986	-0.135	0.084	2024-01-02 18:16:43.468	0
0.99	-0.135	0.084	2024-01-02 18:16:43.569	0
0.989	-0.135	0.087	2024-01-02 18:16:43.668	0
0.984	-0.135	0.083	2024-01-02 18:16:43.772	0
0.988	-0.134	0.083	2024-01-02 18:16:43.867	0
0.992	-0.134	0.087	2024-01-02 18:16:43.975	0
0.989	-0.137	0.083	2024-01-02 18:16:44.680	0
0.985	-0.136	0.079	2024-01-02 18:16:44.184	0
0.984	-0.134	0.082	2024-01-02 18:16:44.268	0
0.989	-0.135	0.081	2024-01-02 18:16:44.370	0
0.988	-0.135	0.083	2024-01-02 18:16:44.467	0
0.985	-0.135	0.084	2024-01-02 18:16:44.574	0
0.987	-0.135	0.082	2024-01-02 18:16:44.665	0
0.991	-0.133	0.084	2024-01-02 18:16:44.784	0
0.984	-0.135	0.084	2024-01-02 18:16:44.865	0
0.987	-0.134	0.082	2024-01-02 18:16:44.973	0
0.985	-0.135	0.082	2024-01-02 18:16:45.730	0
0.987	-0.134	0.083	2024-01-02 18:16:45.175	0
0.99	-0.134	0.084	2024-01-02 18:16:45.270	0
0.987	-0.135	0.084	2024-01-02 18:16:45.385	0
0.984	-0.135	0.083	2024-01-02 18:16:45.475	0
0.99	-0.134	0.084	2024-01-02 18:16:45.596	0
0.986	-0.135	0.084	2024-01-02 18:16:45.672	0
0.984	-0.134	0.085	2024-01-02 18:16:45.775	0
0.988	-0.134	0.083	2024-01-02 18:16:45.871	0
0.985	-0.134	0.083	2024-01-02 18:16:45.986	0
0.987	-0.135	0.083	2024-01-02 18:16:46.770	0
0.988	-0.134	0.084	2024-01-02 18:16:46.198	0
0.989	-0.134	0.086	2024-01-02 18:16:46.267	0
0.987	-0.136	0.084	2024-01-02 18:16:46.376	0
0.987	-0.135	0.084	2024-01-02 18:16:46.468	0
0.985	-0.134	0.083	2024-01-02 18:16:46.587	0
0.99	-0.134	0.083	2024-01-02 18:16:46.682	0
0.988	-0.136	0.083	2024-01-02 18:16:46.797	0
0.987	-0.136	0.082	2024-01-02 18:16:46.887	0
0.988	-0.135	0.082	2024-01-02 18:16:47.900	0
0.988	-0.134	0.085	2024-01-02 18:16:47.680	0
0.987	-0.135	0.083	2024-01-02 18:16:47.187	0
0.985	-0.136	0.083	2024-01-02 18:16:47.278	0
0.985	-0.135	0.085	2024-01-02 18:16:47.397	0
0.992	-0.135	0.083	2024-01-02 18:16:47.487	0
0.985	-0.135	0.083	2024-01-02 18:16:47.605	0
0.986	-0.135	0.084	2024-01-02 18:16:47.676	0
0.989	-0.134	0.085	2024-01-02 18:16:47.786	0
0.988	-0.135	0.083	2024-01-02 18:16:47.877	0
0.987	-0.135	0.084	2024-01-02 18:16:47.997	0
0.987	-0.134	0.084	2024-01-02 18:16:48.870	0
0.987	-0.135	0.086	2024-01-02 18:16:48.208	0
0.988	-0.135	0.086	2024-01-02 18:16:48.298	0
0.987	-0.136	0.083	2024-01-02 18:16:48.418	0
0.989	-0.134	0.084	2024-01-02 18:16:48.477	0
0.989	-0.134	0.083	2024-01-02 18:16:48.596	0
0.989	-0.135	0.082	2024-01-02 18:16:48.685	0
0.99	-0.136	0.083	2024-01-02 18:16:48.808	0
0.987	-0.135	0.083	2024-01-02 18:16:48.897	0
0.986	-0.135	0.083	2024-01-02 18:16:49.190	0
0.987	-0.135	0.083	2024-01-02 18:16:49.770	0
0.987	-0.134	0.083	2024-01-02 18:16:49.197	0
0.987	-0.136	0.084	2024-01-02 18:16:49.287	0
0.986	-0.135	0.083	2024-01-02 18:16:49.408	0
0.989	-0.134	0.082	2024-01-02 18:16:49.499	0
0.985	-0.135	0.084	2024-01-02 18:16:49.618	0
0.986	-0.135	0.083	2024-01-02 18:16:49.709	0
0.987	-0.134	0.085	2024-01-02 18:16:49.865	0
0.989	-0.134	0.085	2024-01-02 18:16:49.887	0
0.986	-0.135	0.085	2024-01-02 18:16:50.600	0
0.987	-0.134	0.082	2024-01-02 18:16:50.980	0
0.986	-0.136	0.083	2024-01-02 18:16:50.218	0
0.99	-0.134	0.085	2024-01-02 18:16:50.308	0
0.987	-0.135	0.085	2024-01-02 18:16:50.429	0
0.985	-0.135	0.083	2024-01-02 18:16:50.487	0
0.985	-0.134	0.084	2024-01-02 18:16:50.608	0
0.988	-0.135	0.084	2024-01-02 18:16:50.697	0
0.989	-0.136	0.085	2024-01-02 18:16:50.818	0
0.986	-0.135	0.086	2024-01-02 18:16:50.909	0
0.988	-0.134	0.084	2024-01-02 18:16:51.280	0
0.987	-0.135	0.084	2024-01-02 18:16:51.118	0
0.987	-0.135	0.084	2024-01-02 18:16:51.239	0
0.986	-0.135	0.084	2024-01-02 18:16:51.298	0
0.99	-0.134	0.083	2024-01-02 18:16:51.418	0
0.987	-0.135	0.082	2024-01-02 18:16:51.509	0
0.989	-0.134	0.083	2024-01-02 18:16:51.627	0
0.988	-0.135	0.082	2024-01-02 18:16:51.718	0
0.986	-0.135	0.083	2024-01-02 18:16:51.839	0
0.983	-0.134	0.085	2024-01-02 18:16:51.895	0
0.993	-0.135	0.082	2024-01-02 18:16:52.190	0
0.991	-0.135	0.083	2024-01-02 18:16:52.108	0
0.984	-0.136	0.084	2024-01-02 18:16:52.229	0
0.986	-0.133	0.087	2024-01-02 18:16:52.318	0
0.986	-0.133	0.083	2024-01-02 18:16:52.468	0
0.985	-0.134	0.083	2024-01-02 18:16:52.582	0
0.988	-0.135	0.083	2024-01-02 18:16:52.651	0
0.986	-0.134	0.084	2024-01-02 18:16:52.708	0
0.986	-0.135	0.084	2024-01-02 18:16:52.830	0
0.987	-0.134	0.085	2024-01-02 18:16:52.918	0
0.986	-0.135	0.084	2024-01-02 18:16:53.390	0
0.988	-0.135	0.085	2024-01-02 18:16:53.129	0
0.987	-0.135	0.084	2024-01-02 18:16:53.270	0
0.986	-0.135	0.083	2024-01-02 18:16:53.309	0
0.987	-0.135	0.083	2024-01-02 18:16:53.430	0
0.985	-0.134	0.083	2024-01-02 18:16:53.517	0
0.987	-0.134	0.083	2024-01-02 18:16:53.636	0
0.986	-0.134	0.084	2024-01-02 18:16:53.728	0
0.987	-0.134	0.083	2024-01-02 18:16:53.877	0
0.988	-0.133	0.084	2024-01-02 18:16:53.939	0
0.986	-0.136	0.083	2024-01-02 18:16:54.730	0
0.989	-0.134	0.084	2024-01-02 18:16:54.118	0
0.987	-0.135	0.084	2024-01-02 18:16:54.238	0
0.985	-0.135	0.084	2024-01-02 18:16:54.328	0
0.987	-0.134	0.084	2024-01-02 18:16:54.465	0
0.988	-0.134	0.084	2024-01-02 18:16:54.540	0
0.986	-0.135	0.082	2024-01-02 18:16:54.687	0
0.99	-0.135	0.084	2024-01-02 18:16:54.718	0
0.987	-0.135	0.083	2024-01-02 18:16:54.837	0
0.983	-0.134	0.083	2024-01-02 18:16:54.928	0
0.989	-0.134	0.085	2024-01-02 18:16:55.700	0
0.987	-0.136	0.084	2024-01-02 18:16:55.138	0
0.985	-0.133	0.083	2024-01-02 18:16:55.271	0
0.988	-0.135	0.083	2024-01-02 18:16:55.371	0
0.988	-0.135	0.085	2024-01-02 18:16:55.470	0
0.987	-0.136	0.084	2024-01-02 18:16:55.529	0
0.986	-0.134	0.084	2024-01-02 18:16:55.666	0
0.985	-0.135	0.085	2024-01-02 18:16:55.738	0
0.986	-0.134	0.083	2024-01-02 18:16:55.867	0
0.989	-0.136	0.083	2024-01-02 18:16:55.977	0
0.988	-0.134	0.084	2024-01-02 18:16:56.710	0
0.987	-0.135	0.084	2024-01-02 18:16:56.129	0
0.987	-0.134	0.084	2024-01-02 18:16:56.270	0
0.988	-0.134	0.083	2024-01-02 18:16:56.338	0
0.987	-0.135	0.083	2024-01-02 18:16:56.471	0
0.989	-0.135	0.082	2024-01-02 18:16:56.571	0
0.988	-0.135	0.086	2024-01-02 18:16:56.670	0
0.988	-0.135	0.083	2024-01-02 18:16:56.774	0
0.988	-0.135	0.084	2024-01-02 18:16:56.878	0
0.986	-0.135	0.084	2024-01-02 18:16:56.938	0
0.984	-0.135	0.085	2024-01-02 18:16:57.680	0
0.989	-0.134	0.083	2024-01-02 18:16:57.174	0
0.989	-0.136	0.085	2024-01-02 18:16:57.271	0
0.989	-0.133	0.085	2024-01-02 18:16:57.369	0
0.984	-0.135	0.082	2024-01-02 18:16:57.475	0
0.985	-0.135	0.081	2024-01-02 18:16:57.541	0
0.993	-0.136	0.081	2024-01-02 18:16:57.668	0
0.988	-0.134	0.085	2024-01-02 18:16:57.772	0
0.987	-0.135	0.083	2024-01-02 18:16:57.868	0
0.983	-0.136	0.084	2024-01-02 18:16:57.982	0
0.986	-0.136	0.083	2024-01-02 18:16:58.760	0
0.985	-0.135	0.083	2024-01-02 18:16:58.170	0
0.99	-0.135	0.085	2024-01-02 18:16:58.286	0
0.985	-0.136	0.084	2024-01-02 18:16:58.346	0
0.987	-0.134	0.084	2024-01-02 18:16:58.470	0
0.99	-0.135	0.082	2024-01-02 18:16:58.571	0
0.985	-0.135	0.084	2024-01-02 18:16:58.679	0
0.989	-0.134	0.083	2024-01-02 18:16:58.771	0
0.987	-0.135	0.084	2024-01-02 18:16:58.887	0
0.985	-0.134	0.083	2024-01-02 18:16:58.974	0
0.989	-0.133	0.084	2024-01-02 18:16:59.720	0
0.988	-0.135	0.084	2024-01-02 18:16:59.169	0
0.986	-0.134	0.085	2024-01-02 18:16:59.279	0
0.985	-0.135	0.086	2024-01-02 18:16:59.368	0
0.99	-0.134	0.083	2024-01-02 18:16:59.484	0
0.992	-0.135	0.083	2024-01-02 18:16:59.575	0
0.988	-0.134	0.085	2024-01-02 18:16:59.697	0
0.984	-0.135	0.085	2024-01-02 18:16:59.770	0
0.988	-0.136	0.084	2024-01-02 18:16:59.877	0
0.986	-0.135	0.083	2024-01-02 18:16:59.997	0
0.988	-0.134	0.083	2024-01-02 18:17:00.870	0
0.986	-0.135	0.084	2024-01-02 18:17:00.177	0
0.99	-0.134	0.083	2024-01-02 18:17:00.298	0
0.987	-0.135	0.084	2024-01-02 18:17:00.368	0
0.987	-0.134	0.083	2024-01-02 18:17:00.477	0
0.99	-0.135	0.085	2024-01-02 18:17:00.571	0
0.988	-0.133	0.083	2024-01-02 18:17:00.687	0
0.986	-0.135	0.085	2024-01-02 18:17:00.778	0
0.988	-0.134	0.084	2024-01-02 18:17:00.897	0
0.988	-0.136	0.084	2024-01-02 18:17:00.988	0
0.987	-0.135	0.084	2024-01-02 18:17:01.109	0
0.986	-0.135	0.083	2024-01-02 18:17:01.168	0
0.987	-0.134	0.085	2024-01-02 18:17:01.288	0
0.988	-0.135	0.085	2024-01-02 18:17:01.377	0
0.987	-0.135	0.082	2024-01-02 18:17:01.498	0
0.99	-0.135	0.083	2024-01-02 18:17:01.619	0
0.985	-0.135	0.085	2024-01-02 18:17:01.709	0
0.989	-0.134	0.085	2024-01-02 18:17:01.773	0
0.984	-0.136	0.083	2024-01-02 18:17:01.888	0
0.991	-0.134	0.083	2024-01-02 18:17:01.977	0
0.987	-0.136	0.086	2024-01-02 18:17:02.940	0
0.985	-0.134	0.084	2024-01-02 18:17:02.185	0
0.988	-0.136	0.083	2024-01-02 18:17:02.306	0
0.987	-0.134	0.084	2024-01-02 18:17:02.395	0
0.988	-0.135	0.084	2024-01-02 18:17:02.515	0
0.986	-0.134	0.084	2024-01-02 18:17:02.575	0
0.986	-0.136	0.083	2024-01-02 18:17:02.694	0
0.986	-0.133	0.085	2024-01-02 18:17:02.786	0
0.987	-0.134	0.084	2024-01-02 18:17:02.904	0
0.983	-0.135	0.083	2024-01-02 18:17:02.994	0
0.989	-0.134	0.083	2024-01-02 18:17:03.115	0
0.986	-0.135	0.083	2024-01-02 18:17:03.174	0
0.987	-0.134	0.084	2024-01-02 18:17:03.295	0
0.987	-0.134	0.083	2024-01-02 18:17:03.384	0
0.988	-0.134	0.083	2024-01-02 18:17:03.505	0
0.986	-0.134	0.084	2024-01-02 18:17:03.594	0
0.988	-0.134	0.084	2024-01-02 18:17:03.716	0
0.986	-0.136	0.083	2024-01-02 18:17:03.806	0
0.988	-0.134	0.083	2024-01-02 18:17:03.926	0
0.987	-0.136	0.083	2024-01-02 18:17:03.986	0
0.987	-0.134	0.084	2024-01-02 18:17:04.107	0
0.988	-0.135	0.084	2024-01-02 18:17:04.195	0
0.986	-0.134	0.085	2024-01-02 18:17:04.315	0
0.987	-0.134	0.083	2024-01-02 18:17:04.406	0
0.985	-0.135	0.084	2024-01-02 18:17:04.525	0
0.989	-0.135	0.083	2024-01-02 18:17:04.585	0
0.988	-0.135	0.084	2024-01-02 18:17:04.707	0
0.988	-0.134	0.084	2024-01-02 18:17:04.795	0
0.985	-0.135	0.084	2024-01-02 18:17:04.915	0
0.987	-0.134	0.084	2024-01-02 18:17:05.600	0
0.987	-0.135	0.084	2024-01-02 18:17:05.127	0
0.987	-0.134	0.084	2024-01-02 18:17:05.215	0
0.987	-0.134	0.084	2024-01-02 18:17:05.336	0
0.987	-0.135	0.083	2024-01-02 18:17:05.395	0
